Duration,resp.keys,resp.corr,resp.rt,pracTrials.thisRepN,pracTrials.thisTrialN,pracTrials.thisN,pracTrials.thisIndex,pracTrials.ran,objLabel,imFile,distractLabel,corr,participant,date,expName,psychopyVersion,OS,frameRate,,Corr,objDistract,py_duration,trials.thisRepN,trials.thisTrialN,trials.thisN,trials.thisIndex,trials.ran,objNum,animType,condition
0.3,left,1,6.108025,0,0,0,0,1,shoe,Stim/Prac (1).jpg,phone,left,6000,2021-05-28_13h33.30.555,KorNet_kid_deleted,2020.2.4,Win32,60,6000,,,,,,,,,,,
0.3,left,1,5.548515,0,1,1,3,1,motorcycle,Stim/Prac (4).jpg,skateboard,left,6000,2021-05-28_13h33.30.555,KorNet_kid_deleted,2020.2.4,Win32,60,6000,,,,,,,,,,,
0.25,right,1,5.354035,0,2,2,1,1,castle,Stim/Prac (2).png,car,right,6000,2021-05-28_13h33.30.555,KorNet_kid_deleted,2020.2.4,Win32,60,6000,,,,,,,,,,,
0.25,right,1,4.08344,0,3,3,2,1,balloon,Stim/Prac (3).jpg,computer,right,6000,2021-05-28_13h33.30.555,KorNet_kid_deleted,2020.2.4,Win32,60,6000,,,,,,,,,,,
0.3,right,0,17.25641,,,,,,squirrel,Stim/OBJ (42)_IC.png,,,6000,2021-05-28_13h33.30.555,KorNet_kid_deleted,2020.2.4,Win32,60,6000,left,rabbit,0.298995,0,0,0,25,1,42,Animate,3
0.3,left,1,5.87622,,,,,,chair,Stim/OBJ (12)_IC.png,,,6000,2021-05-28_13h33.30.555,KorNet_kid_deleted,2020.2.4,Win32,60,6000,left,apple,0.29945,0,1,1,7,1,12,Inanimate,3
0.3,left,1,5.624895,,,,,,airplane,Stim/OBJ (1)_IC.png,,,6000,2021-05-28_13h33.30.555,KorNet_kid_deleted,2020.2.4,Win32,60,6000,left,watch,0.29968,0,2,2,0,1,1,Inanimate,3
0.25,right,1,5.056335,,,,,,apple,Stim/OBJ (4)_IC.png,,,6000,2021-05-28_13h33.30.555,KorNet_kid_deleted,2020.2.4,Win32,60,6000,right,umbrella,0.29972,0,3,3,1,1,4,Inanimate,3
0.25,left,1,4.52527,,,,,,umbrella,Stim/OBJ (47)_IC.png,,,6000,2021-05-28_13h33.30.555,KorNet_kid_deleted,2020.2.4,Win32,60,6000,left,guitar,0.24982,0,4,4,29,1,47,Inanimate,3
0.25,left,0,4.928045,,,,,,frog,Stim/OBJ (23)_IC.png,,,6000,2021-05-28_13h33.30.555,KorNet_kid_deleted,2020.2.4,Win32,60,6000,right,foot,0.250225,0,5,5,16,1,23,Animate,3
0.25,right,0,4.934055,,,,,,rabbit,Stim/OBJ (38)_IC.png,,,6000,2021-05-28_13h33.30.555,KorNet_kid_deleted,2020.2.4,Win32,60,6000,left,butterfly,0.249875,0,6,6,23,1,38,Animate,3
0.25,right,1,2.038275,,,,,,guitar,Stim/OBJ (27)_IC.png,,,6000,2021-05-28_13h33.30.555,KorNet_kid_deleted,2020.2.4,Win32,60,6000,right,spoon,0.24998,0,7,7,18,1,27,Inanimate,3
0.25,right,0,5.84067,,,,,,fish,Stim/OBJ (19)_IC.png,,,6000,2021-05-28_13h33.30.555,KorNet_kid_deleted,2020.2.4,Win32,60,6000,left,dog,0.249645,0,8,8,12,1,19,Animate,3
0.25,left,1,5.359705,,,,,,cat,Stim/OBJ (11)_IC.png,,,6000,2021-05-28_13h33.30.555,KorNet_kid_deleted,2020.2.4,Win32,60,6000,left,cow,0.24961,0,9,9,6,1,11,Animate,3
0.25,right,1,4.34937,,,,,,bear,Stim/OBJ (6)_IC.png,,,6000,2021-05-28_13h33.30.555,KorNet_kid_deleted,2020.2.4,Win32,60,6000,right,rabbit,0.24987,0,10,10,2,1,6,Animate,3
0.2,right,1,4.974265,,,,,,hand,Stim/OBJ (25)_IC.png,,,6000,2021-05-28_13h33.30.555,KorNet_kid_deleted,2020.2.4,Win32,60,6000,right,squirrel,0.249895,0,11,11,17,1,25,Animate,3
0.2,right,1,5.19209,,,,,,fork,Stim/OBJ (22)_IC.png,,,6000,2021-05-28_13h33.30.555,KorNet_kid_deleted,2020.2.4,Win32,60,6000,right,flower,0.200005,0,12,12,15,1,22,Inanimate,3
0.2,left,1,3.99111,,,,,,bird,Stim/OBJ (8)_IC.png,,,6000,2021-05-28_13h33.30.555,KorNet_kid_deleted,2020.2.4,Win32,60,6000,left,frog,0.19963,0,13,13,4,1,8,Animate,3
0.15,left,1,4.04141,,,,,,flower,Stim/OBJ (20)_IC.png,,,6000,2021-05-28_13h33.30.555,KorNet_kid_deleted,2020.2.4,Win32,60,6000,left,chair,0.199545,0,14,14,13,1,20,Inanimate,3
0.15,right,1,4.244045,,,,,,cow,Stim/OBJ (14)_IC.png,,,6000,2021-05-28_13h33.30.555,KorNet_kid_deleted,2020.2.4,Win32,60,6000,right,elephant,0.14967,0,15,15,8,1,14,Animate,3
0.15,left,1,2.09273,,,,,,tree,Stim/OBJ (44)_IC.png,,,6000,2021-05-28_13h33.30.555,KorNet_kid_deleted,2020.2.4,Win32,60,6000,left,toothbrush,0.149895,0,16,16,26,1,44,Inanimate,3
0.1,right,1,2.301415,,,,,,key,Stim/OBJ (29)_IC.png,,,6000,2021-05-28_13h33.30.555,KorNet_kid_deleted,2020.2.4,Win32,60,6000,right,kite,0.15005,0,17,17,19,1,29,Inanimate,3
0.1,left,1,2.782375,,,,,,leaf,Stim/OBJ (32)_IC.png,,,6000,2021-05-28_13h33.30.555,KorNet_kid_deleted,2020.2.4,Win32,60,6000,left,spoon,0.099875,0,18,18,22,1,32,Inanimate,3
0.1,right,1,1.66959,,,,,,bicycle,Stim/OBJ (7)_IC.png,,,6000,2021-05-28_13h33.30.555,KorNet_kid_deleted,2020.2.4,Win32,60,6000,right,chair,0.09994,0,19,19,3,1,7,Inanimate,3
0.1,right,1,2.477275,,,,,,spoon,Stim/OBJ (41)_IC.png,,,6000,2021-05-28_13h33.30.555,KorNet_kid_deleted,2020.2.4,Win32,60,6000,right,apple,0.10014,0,20,20,24,1,41,Inanimate,3
0.1,right,0,2.4846,,,,,,turtle,Stim/OBJ (46)_IC.png,,,6000,2021-05-28_13h33.30.555,KorNet_kid_deleted,2020.2.4,Win32,60,6000,left,ant,0.099875,0,21,21,28,1,46,Animate,3
0.1,left,0,2.35405,,,,,,lamp,Stim/OBJ (31)_IC.png,,,6000,2021-05-28_13h33.30.555,KorNet_kid_deleted,2020.2.4,Win32,60,6000,right,scissors,0.099935,0,22,22,21,1,31,Inanimate,3
0.1,right,1,1.895865,,,,,,dog,Stim/OBJ (16)_IC.png,,,6000,2021-05-28_13h33.30.555,KorNet_kid_deleted,2020.2.4,Win32,60,6000,right,foot,0.099445,0,23,23,9,1,16,Animate,3
0.1,left,1,1.997585,,,,,,kite,Stim/OBJ (30)_IC.png,,,6000,2021-05-28_13h33.30.555,KorNet_kid_deleted,2020.2.4,Win32,60,6000,left,lamp,0.09991,0,24,24,20,1,30,Inanimate,3
0.1,right,0,2.58657,,,,,,butterfly,Stim/OBJ (10)_IC.png,,,6000,2021-05-28_13h33.30.555,KorNet_kid_deleted,2020.2.4,Win32,60,6000,left,bird,0.099905,0,25,25,5,1,10,Animate,3
0.1,left,0,2.3585,,,,,,foot,Stim/OBJ (21)_IC.png,,,6000,2021-05-28_13h33.30.555,KorNet_kid_deleted,2020.2.4,Win32,60,6000,right,turtle,0.100045,0,26,26,14,1,21,Animate,3
0.1,left,1,2.048025,,,,,,elephant,Stim/OBJ (18)_IC.png,,,6000,2021-05-28_13h33.30.555,KorNet_kid_deleted,2020.2.4,Win32,60,6000,left,squirrel,0.099935,0,27,27,11,1,18,Animate,3
0.1,left,1,1.766165,,,,,,duck,Stim/OBJ (17)_IC.png,,,6000,2021-05-28_13h33.30.555,KorNet_kid_deleted,2020.2.4,Win32,60,6000,left,elephant,0.09999,0,28,28,10,1,17,Animate,3
0.1,left,1,3.23134,,,,,,truck,Stim/OBJ (45)_IC.png,,,6000,2021-05-28_13h33.30.555,KorNet_kid_deleted,2020.2.4,Win32,60,6000,left,key,0.0998,0,29,29,27,1,45,Inanimate,3
