Duration,resp.keys,resp.corr,resp.rt,pracTrials.thisRepN,pracTrials.thisTrialN,pracTrials.thisN,pracTrials.thisIndex,pracTrials.ran,objLabel,imFile,distractLabel,corr,participant,date,expName,psychopyVersion,OS,frameRate,Corr,objDistract,py_duration,trials.thisRepN,trials.thisTrialN,trials.thisN,trials.thisIndex,trials.ran,objNum,animType,condition
0.3,right,1,6.7276,0,0,0,2,1,balloon,Stim/Prac (3).jpg,computer,right,6045,2021-09-02_15h07.43.737,KorNet_kid_deleted,2020.2.4,Win32,60,,,,,,,,,,,
0.3,left,1,5.721,0,1,1,3,1,motorcycle,Stim/Prac (4).jpg,skateboard,left,6045,2021-09-02_15h07.43.737,KorNet_kid_deleted,2020.2.4,Win32,60,,,,,,,,,,,
0.25,left,1,6.4205,0,2,2,0,1,shoe,Stim/Prac (1).jpg,phone,left,6045,2021-09-02_15h07.43.737,KorNet_kid_deleted,2020.2.4,Win32,60,,,,,,,,,,,
0.25,right,1,5.2138,0,3,3,1,1,castle,Stim/Prac (2).png,car,right,6045,2021-09-02_15h07.43.737,KorNet_kid_deleted,2020.2.4,Win32,60,,,,,,,,,,,
0.3,right,0,16.2102,,,,,,bear,Stim/OBJ (6)_IC.png,,,6045,2021-09-02_15h07.43.737,KorNet_kid_deleted,2020.2.4,Win32,60,left,ant,0.3108,0,0,0,2,1,6,Animate,3
0.3,right,0,26.8305,,,,,,frog,Stim/OBJ (23)_IC.png,,,6045,2021-09-02_15h07.43.737,KorNet_kid_deleted,2020.2.4,Win32,60,left,deer,0.3095,0,1,1,16,1,23,Animate,3
0.35,left,0,5.6733,,,,,,chair,Stim/OBJ (12)_IC.png,,,6045,2021-09-02_15h07.43.737,KorNet_kid_deleted,2020.2.4,Win32,60,right,leaf,0.3109,0,2,2,7,1,12,Inanimate,3
0.35,left,1,5.64,,,,,,bicycle,Stim/OBJ (7)_IC.png,,,6045,2021-09-02_15h07.43.737,KorNet_kid_deleted,2020.2.4,Win32,60,left,airplane,0.343,0,3,3,3,1,7,Inanimate,3
0.35,right,1,4.6187,,,,,,lamp,Stim/OBJ (31)_IC.png,,,6045,2021-09-02_15h07.43.737,KorNet_kid_deleted,2020.2.4,Win32,60,right,fork,0.3434,0,4,4,21,1,31,Inanimate,3
0.3,left,1,5.0421,,,,,,duck,Stim/OBJ (17)_IC.png,,,6045,2021-09-02_15h07.43.737,KorNet_kid_deleted,2020.2.4,Win32,60,left,deer,0.3425,0,5,5,10,1,17,Animate,3
0.3,left,1,4.5163,,,,,,fish,Stim/OBJ (19)_IC.png,,,6045,2021-09-02_15h07.43.737,KorNet_kid_deleted,2020.2.4,Win32,60,left,ant,0.3136,0,6,6,12,1,19,Animate,3
0.3,left,1,5.8375,,,,,,spoon,Stim/OBJ (41)_IC.png,,,6045,2021-09-02_15h07.43.737,KorNet_kid_deleted,2020.2.4,Win32,60,left,flower,0.3085,0,7,7,24,1,41,Inanimate,3
0.3,left,0,4.862,,,,,,fork,Stim/OBJ (22)_IC.png,,,6045,2021-09-02_15h07.43.737,KorNet_kid_deleted,2020.2.4,Win32,60,right,spoon,0.3122,0,8,8,15,1,22,Inanimate,3
0.3,right,1,4.9617,,,,,,kite,Stim/OBJ (30)_IC.png,,,6045,2021-09-02_15h07.43.737,KorNet_kid_deleted,2020.2.4,Win32,60,right,airplane,0.3105,0,9,9,20,1,30,Inanimate,3
0.3,right,0,9.2561,,,,,,elephant,Stim/OBJ (18)_IC.png,,,6045,2021-09-02_15h07.43.737,KorNet_kid_deleted,2020.2.4,Win32,60,left,fish,0.3124,0,10,10,11,1,18,Animate,3
0.3,left,0,4.7518,,,,,,bird,Stim/OBJ (8)_IC.png,,,6045,2021-09-02_15h07.43.737,KorNet_kid_deleted,2020.2.4,Win32,60,right,duck,0.31,0,11,11,4,1,8,Animate,3
0.3,left,1,2.3461,,,,,,rabbit,Stim/OBJ (38)_IC.png,,,6045,2021-09-02_15h07.43.737,KorNet_kid_deleted,2020.2.4,Win32,60,left,squirrel,0.3096,0,12,12,23,1,38,Animate,3
0.3,right,1,4.7086,,,,,,hand,Stim/OBJ (25)_IC.png,,,6045,2021-09-02_15h07.43.737,KorNet_kid_deleted,2020.2.4,Win32,60,right,bear,0.3118,0,13,13,17,1,25,Animate,3
0.25,right,1,4.5468,,,,,,turtle,Stim/OBJ (46)_IC.png,,,6045,2021-09-02_15h07.43.737,KorNet_kid_deleted,2020.2.4,Win32,60,right,ant,0.3106,0,14,14,28,1,46,Animate,3
0.25,right,1,5.4632,,,,,,guitar,Stim/OBJ (27)_IC.png,,,6045,2021-09-02_15h07.43.737,KorNet_kid_deleted,2020.2.4,Win32,60,right,fork,0.2496,0,15,15,18,1,27,Inanimate,3
0.25,right,1,1.9932,,,,,,leaf,Stim/OBJ (32)_IC.png,,,6045,2021-09-02_15h07.43.737,KorNet_kid_deleted,2020.2.4,Win32,60,right,glasses,0.2474,0,16,16,22,1,32,Inanimate,3
0.25,right,0,4.9127,,,,,,cat,Stim/OBJ (11)_IC.png,,,6045,2021-09-02_15h07.43.737,KorNet_kid_deleted,2020.2.4,Win32,60,left,butterfly,0.248,0,17,17,6,1,11,Animate,3
0.25,right,1,6.6595,,,,,,airplane,Stim/OBJ (1)_IC.png,,,6045,2021-09-02_15h07.43.737,KorNet_kid_deleted,2020.2.4,Win32,60,right,truck,0.2478,0,18,18,0,1,1,Inanimate,3
0.25,right,1,2.4112,,,,,,tree,Stim/OBJ (44)_IC.png,,,6045,2021-09-02_15h07.43.737,KorNet_kid_deleted,2020.2.4,Win32,60,right,umbrella,0.2477,0,19,19,26,1,44,Inanimate,3
0.2,left,1,2.6626,,,,,,umbrella,Stim/OBJ (47)_IC.png,,,6045,2021-09-02_15h07.43.737,KorNet_kid_deleted,2020.2.4,Win32,60,left,guitar,0.2457,0,20,20,29,1,47,Inanimate,3
0.2,right,1,4.763,,,,,,dog,Stim/OBJ (16)_IC.png,,,6045,2021-09-02_15h07.43.737,KorNet_kid_deleted,2020.2.4,Win32,60,right,bear,0.2181,0,21,21,9,1,16,Animate,3
0.2,left,1,3.1855,,,,,,cow,Stim/OBJ (14)_IC.png,,,6045,2021-09-02_15h07.43.737,KorNet_kid_deleted,2020.2.4,Win32,60,left,dog,0.2162,0,22,22,8,1,14,Animate,3
0.15,left,1,2.9136,,,,,,butterfly,Stim/OBJ (10)_IC.png,,,6045,2021-09-02_15h07.43.737,KorNet_kid_deleted,2020.2.4,Win32,60,left,bear,0.1898,0,23,23,5,1,10,Animate,3
0.15,right,0,6.2638,,,,,,squirrel,Stim/OBJ (42)_IC.png,,,6045,2021-09-02_15h07.43.737,KorNet_kid_deleted,2020.2.4,Win32,60,left,frog,0.155,0,24,24,25,1,42,Animate,3
0.15,left,1,7.0373,,,,,,truck,Stim/OBJ (45)_IC.png,,,6045,2021-09-02_15h07.43.737,KorNet_kid_deleted,2020.2.4,Win32,60,left,key,0.1558,0,25,25,27,1,45,Inanimate,3
0.15,right,1,2.2307,,,,,,apple,Stim/OBJ (4)_IC.png,,,6045,2021-09-02_15h07.43.737,KorNet_kid_deleted,2020.2.4,Win32,60,right,scissors,0.1564,0,26,26,1,1,4,Inanimate,3
0.1,left,1,3.0321,,,,,,key,Stim/OBJ (29)_IC.png,,,6045,2021-09-02_15h07.43.737,KorNet_kid_deleted,2020.2.4,Win32,60,left,bicycle,0.1538,0,27,27,19,1,29,Inanimate,3
0.1,left,0,6.4073,,,,,,foot,Stim/OBJ (21)_IC.png,,,6045,2021-09-02_15h07.43.737,KorNet_kid_deleted,2020.2.4,Win32,60,right,bear,0.0937,0,28,28,14,1,21,Animate,3
0.1,right,0,6.712,,,,,,flower,Stim/OBJ (20)_IC.png,,,6045,2021-09-02_15h07.43.737,KorNet_kid_deleted,2020.2.4,Win32,60,left,key,0.0929,0,29,29,13,1,20,Inanimate,3
