Duration,resp.keys,resp.corr,resp.rt,pracTrials.thisRepN,pracTrials.thisTrialN,pracTrials.thisN,pracTrials.thisIndex,pracTrials.ran,objLabel,imFile,distractLabel,corr,participant,date,expName,psychopyVersion,OS,frameRate,Corr,objDistract,py_duration,trials.thisRepN,trials.thisTrialN,trials.thisN,trials.thisIndex,trials.ran,objNum,animType,condition
0.3,left,1,8.3856,0,0,0,0,1,shoe,Stim/Prac (1).jpg,phone,left,6051,2022-01-11_17h37.25.688,KorNet_kid_deleted,2020.2.4,Win32,60,,,,,,,,,,,
0.3,right,1,6.7114,0,1,1,2,1,balloon,Stim/Prac (3).jpg,computer,right,6051,2022-01-11_17h37.25.688,KorNet_kid_deleted,2020.2.4,Win32,60,,,,,,,,,,,
0.25,left,1,7.5973,0,2,2,3,1,motorcycle,Stim/Prac (4).jpg,skateboard,left,6051,2022-01-11_17h37.25.688,KorNet_kid_deleted,2020.2.4,Win32,60,,,,,,,,,,,
0.25,right,1,7.4312,0,3,3,1,1,castle,Stim/Prac (2).png,car,right,6051,2022-01-11_17h37.25.688,KorNet_kid_deleted,2020.2.4,Win32,60,,,,,,,,,,,
0.3,right,1,7.6992,,,,,,foot,Stim/OBJ (21)_IC.png,,,6051,2022-01-11_17h37.25.688,KorNet_kid_deleted,2020.2.4,Win32,60,right,elephant,0.2998,0,0,0,14,1,21,Animate,3
0.3,left,0,8.5467,,,,,,leaf,Stim/OBJ (32)_IC.png,,,6051,2022-01-11_17h37.25.688,KorNet_kid_deleted,2020.2.4,Win32,60,right,key,0.3002,0,1,1,22,1,32,Inanimate,3
0.3,right,1,7.4332,,,,,,bicycle,Stim/OBJ (7)_IC.png,,,6051,2022-01-11_17h37.25.688,KorNet_kid_deleted,2020.2.4,Win32,60,right,fork,0.3001,0,2,2,3,1,7,Inanimate,3
0.3,right,1,6.9783,,,,,,duck,Stim/OBJ (17)_IC.png,,,6051,2022-01-11_17h37.25.688,KorNet_kid_deleted,2020.2.4,Win32,60,right,rabbit,0.3015,0,3,3,10,1,17,Animate,3
0.3,left,0,7.4985,,,,,,airplane,Stim/OBJ (1)_IC.png,,,6051,2022-01-11_17h37.25.688,KorNet_kid_deleted,2020.2.4,Win32,60,right,leaf,0.2996,0,4,4,0,1,1,Inanimate,3
0.3,right,1,7.4009,,,,,,bear,Stim/OBJ (6)_IC.png,,,6051,2022-01-11_17h37.25.688,KorNet_kid_deleted,2020.2.4,Win32,60,right,ant,0.2999,0,5,5,2,1,6,Animate,3
0.3,right,0,10.6809,,,,,,lamp,Stim/OBJ (31)_IC.png,,,6051,2022-01-11_17h37.25.688,KorNet_kid_deleted,2020.2.4,Win32,60,left,scissors,0.2921,0,6,6,21,1,31,Inanimate,3
0.3,left,1,7.3314,,,,,,guitar,Stim/OBJ (27)_IC.png,,,6051,2022-01-11_17h37.25.688,KorNet_kid_deleted,2020.2.4,Win32,60,left,tree,0.3001,0,7,7,18,1,27,Inanimate,3
0.3,right,1,6.5364,,,,,,spoon,Stim/OBJ (41)_IC.png,,,6051,2022-01-11_17h37.25.688,KorNet_kid_deleted,2020.2.4,Win32,60,right,apple,0.3004,0,8,8,24,1,41,Inanimate,3
0.3,right,0,10.3662,,,,,,truck,Stim/OBJ (45)_IC.png,,,6051,2022-01-11_17h37.25.688,KorNet_kid_deleted,2020.2.4,Win32,60,left,airplane,0.2997,0,9,9,27,1,45,Inanimate,3
0.3,left,1,7.8471,,,,,,hand,Stim/OBJ (25)_IC.png,,,6051,2022-01-11_17h37.25.688,KorNet_kid_deleted,2020.2.4,Win32,60,left,deer,0.2994,0,10,10,17,1,25,Animate,3
0.3,right,1,6.1472,,,,,,turtle,Stim/OBJ (46)_IC.png,,,6051,2022-01-11_17h37.25.688,KorNet_kid_deleted,2020.2.4,Win32,60,right,foot,0.2998,0,11,11,28,1,46,Animate,3
0.25,left,1,6.1706,,,,,,butterfly,Stim/OBJ (10)_IC.png,,,6051,2022-01-11_17h37.25.688,KorNet_kid_deleted,2020.2.4,Win32,60,left,penguin,0.2999,0,12,12,5,1,10,Animate,3
0.25,left,1,6.1235,,,,,,kite,Stim/OBJ (30)_IC.png,,,6051,2022-01-11_17h37.25.688,KorNet_kid_deleted,2020.2.4,Win32,60,left,truck,0.2531,0,13,13,20,1,30,Inanimate,3
0.25,right,1,7.2189,,,,,,rabbit,Stim/OBJ (38)_IC.png,,,6051,2022-01-11_17h37.25.688,KorNet_kid_deleted,2020.2.4,Win32,60,right,penguin,0.2433,0,14,14,23,1,38,Animate,3
0.2,left,1,6.8329,,,,,,tree,Stim/OBJ (44)_IC.png,,,6051,2022-01-11_17h37.25.688,KorNet_kid_deleted,2020.2.4,Win32,60,left,glasses,0.2499,0,15,15,26,1,44,Inanimate,3
0.2,right,1,6.1179,,,,,,flower,Stim/OBJ (20)_IC.png,,,6051,2022-01-11_17h37.25.688,KorNet_kid_deleted,2020.2.4,Win32,60,right,glasses,0.2056,0,16,16,13,1,20,Inanimate,3
0.2,left,0,7.0344,,,,,,chair,Stim/OBJ (12)_IC.png,,,6051,2022-01-11_17h37.25.688,KorNet_kid_deleted,2020.2.4,Win32,60,right,key,0.1959,0,17,17,7,1,12,Inanimate,3
0.2,right,1,6.4695,,,,,,umbrella,Stim/OBJ (47)_IC.png,,,6051,2022-01-11_17h37.25.688,KorNet_kid_deleted,2020.2.4,Win32,60,right,spoon,0.2004,0,18,18,29,1,47,Inanimate,3
0.2,right,1,8.0722,,,,,,cow,Stim/OBJ (14)_IC.png,,,6051,2022-01-11_17h37.25.688,KorNet_kid_deleted,2020.2.4,Win32,60,right,rabbit,0.1894,0,19,19,8,1,14,Animate,3
0.15,left,1,11.6305,,,,,,squirrel,Stim/OBJ (42)_IC.png,,,6051,2022-01-11_17h37.25.688,KorNet_kid_deleted,2020.2.4,Win32,60,left,elephant,0.1926,0,20,20,25,1,42,Animate,3
0.15,left,1,7.4992,,,,,,elephant,Stim/OBJ (18)_IC.png,,,6051,2022-01-11_17h37.25.688,KorNet_kid_deleted,2020.2.4,Win32,60,left,butterfly,0.1498,0,21,21,11,1,18,Animate,3
0.15,right,1,10.0431,,,,,,key,Stim/OBJ (29)_IC.png,,,6051,2022-01-11_17h37.25.688,KorNet_kid_deleted,2020.2.4,Win32,60,right,flower,0.1503,0,22,22,19,1,29,Inanimate,3
0.1,right,1,5.3879,,,,,,apple,Stim/OBJ (4)_IC.png,,,6051,2022-01-11_17h37.25.688,KorNet_kid_deleted,2020.2.4,Win32,60,right,key,0.1472,0,23,23,1,1,4,Inanimate,3
0.1,right,1,6.3813,,,,,,frog,Stim/OBJ (23)_IC.png,,,6051,2022-01-11_17h37.25.688,KorNet_kid_deleted,2020.2.4,Win32,60,right,turtle,0.0967,0,24,24,16,1,23,Animate,3
0.1,right,1,6.0683,,,,,,dog,Stim/OBJ (16)_IC.png,,,6051,2022-01-11_17h37.25.688,KorNet_kid_deleted,2020.2.4,Win32,60,right,foot,0.0899,0,25,25,9,1,16,Animate,3
0.1,left,1,6.6303,,,,,,bird,Stim/OBJ (8)_IC.png,,,6051,2022-01-11_17h37.25.688,KorNet_kid_deleted,2020.2.4,Win32,60,left,cow,0.0992,0,26,26,4,1,8,Animate,3
0.1,left,1,7.3165,,,,,,fork,Stim/OBJ (22)_IC.png,,,6051,2022-01-11_17h37.25.688,KorNet_kid_deleted,2020.2.4,Win32,60,left,umbrella,0.1006,0,27,27,15,1,22,Inanimate,3
0.1,left,1,8.6786,,,,,,fish,Stim/OBJ (19)_IC.png,,,6051,2022-01-11_17h37.25.688,KorNet_kid_deleted,2020.2.4,Win32,60,left,mouse,0.0999,0,28,28,12,1,19,Animate,3
0.1,left,1,7.9529,,,,,,cat,Stim/OBJ (11)_IC.png,,,6051,2022-01-11_17h37.25.688,KorNet_kid_deleted,2020.2.4,Win32,60,left,kangaroo,0.1002,0,29,29,6,1,11,Animate,3
