Duration,resp.keys,resp.corr,resp.rt,pracTrials.thisRepN,pracTrials.thisTrialN,pracTrials.thisN,pracTrials.thisIndex,pracTrials.ran,objLabel,imFile,distractLabel,corr,participant,date,expName,psychopyVersion,OS,frameRate,Corr,objDistract,py_duration,trials.thisRepN,trials.thisTrialN,trials.thisN,trials.thisIndex,trials.ran,objNum,animType,condition
0.3,left,1,6.9833,0,0,0,3,1,motorcycle,Stim/Prac (4).jpg,skateboard,left,6054,2022-01-20_14h04.11.655,KorNet_kid_deleted,2020.2.4,Win32,60,,,,,,,,,,,
0.3,right,1,5.1914,0,1,1,2,1,balloon,Stim/Prac (3).jpg,computer,right,6054,2022-01-20_14h04.11.655,KorNet_kid_deleted,2020.2.4,Win32,60,,,,,,,,,,,
0.25,right,1,5.2743,0,2,2,1,1,castle,Stim/Prac (2).png,car,right,6054,2022-01-20_14h04.11.655,KorNet_kid_deleted,2020.2.4,Win32,60,,,,,,,,,,,
0.25,left,1,4.4544,0,3,3,0,1,shoe,Stim/Prac (1).jpg,phone,left,6054,2022-01-20_14h04.11.655,KorNet_kid_deleted,2020.2.4,Win32,60,,,,,,,,,,,
0.3,right,1,5.5924,,,,,,turtle,Stim/OBJ (46)_IC.png,,,6054,2022-01-20_14h04.11.655,KorNet_kid_deleted,2020.2.4,Win32,60,right,butterfly,0.2997,0,0,0,28,1,46,Animate,3
0.3,left,1,4.5851,,,,,,duck,Stim/OBJ (17)_IC.png,,,6054,2022-01-20_14h04.11.655,KorNet_kid_deleted,2020.2.4,Win32,60,left,bear,0.2993,0,1,1,10,1,17,Animate,3
0.25,left,1,7.391,,,,,,dog,Stim/OBJ (16)_IC.png,,,6054,2022-01-20_14h04.11.655,KorNet_kid_deleted,2020.2.4,Win32,60,left,elephant,0.2949,0,2,2,9,1,16,Animate,3
0.25,left,0,5.966,,,,,,bear,Stim/OBJ (6)_IC.png,,,6054,2022-01-20_14h04.11.655,KorNet_kid_deleted,2020.2.4,Win32,60,right,squirrel,0.2427,0,3,3,2,1,6,Animate,3
0.25,left,1,6.3432,,,,,,frog,Stim/OBJ (23)_IC.png,,,6054,2022-01-20_14h04.11.655,KorNet_kid_deleted,2020.2.4,Win32,60,left,rabbit,0.2498,0,4,4,16,1,23,Animate,3
0.25,left,1,5.5776,,,,,,key,Stim/OBJ (29)_IC.png,,,6054,2022-01-20_14h04.11.655,KorNet_kid_deleted,2020.2.4,Win32,60,left,truck,0.2475,0,5,5,19,1,29,Inanimate,3
0.2,left,1,5.9483,,,,,,cow,Stim/OBJ (14)_IC.png,,,6054,2022-01-20_14h04.11.655,KorNet_kid_deleted,2020.2.4,Win32,60,left,hand,0.2482,0,6,6,8,1,14,Animate,3
0.2,right,1,5.2459,,,,,,foot,Stim/OBJ (21)_IC.png,,,6054,2022-01-20_14h04.11.655,KorNet_kid_deleted,2020.2.4,Win32,60,right,dog,0.1904,0,7,7,14,1,21,Animate,3
0.2,left,0,5.091,,,,,,squirrel,Stim/OBJ (42)_IC.png,,,6054,2022-01-20_14h04.11.655,KorNet_kid_deleted,2020.2.4,Win32,60,right,fish,0.1936,0,8,8,25,1,42,Animate,3
0.2,left,1,16.2396,,,,,,cat,Stim/OBJ (11)_IC.png,,,6054,2022-01-20_14h04.11.655,KorNet_kid_deleted,2020.2.4,Win32,60,left,kangaroo,0.1997,0,9,9,6,1,11,Animate,3
0.2,right,1,6.1191,,,,,,umbrella,Stim/OBJ (47)_IC.png,,,6054,2022-01-20_14h04.11.655,KorNet_kid_deleted,2020.2.4,Win32,60,right,leaf,0.1992,0,10,10,29,1,47,Inanimate,3
0.15,left,1,4.7503,,,,,,hand,Stim/OBJ (25)_IC.png,,,6054,2022-01-20_14h04.11.655,KorNet_kid_deleted,2020.2.4,Win32,60,left,cat,0.199,0,11,11,17,1,25,Animate,3
0.15,right,0,8.1149,,,,,,rabbit,Stim/OBJ (38)_IC.png,,,6054,2022-01-20_14h04.11.655,KorNet_kid_deleted,2020.2.4,Win32,60,left,mouse,0.1496,0,12,12,23,1,38,Animate,3
0.15,left,1,6.3503,,,,,,truck,Stim/OBJ (45)_IC.png,,,6054,2022-01-20_14h04.11.655,KorNet_kid_deleted,2020.2.4,Win32,60,left,key,0.1508,0,13,13,27,1,45,Inanimate,3
0.15,right,1,4.2927,,,,,,bird,Stim/OBJ (8)_IC.png,,,6054,2022-01-20_14h04.11.655,KorNet_kid_deleted,2020.2.4,Win32,60,right,duck,0.1501,0,14,14,4,1,8,Animate,3
0.15,left,0,5.9999,,,,,,lamp,Stim/OBJ (31)_IC.png,,,6054,2022-01-20_14h04.11.655,KorNet_kid_deleted,2020.2.4,Win32,60,right,spoon,0.1415,0,15,15,21,1,31,Inanimate,3
0.15,left,1,5.0394,,,,,,guitar,Stim/OBJ (27)_IC.png,,,6054,2022-01-20_14h04.11.655,KorNet_kid_deleted,2020.2.4,Win32,60,left,kite,0.1471,0,16,16,18,1,27,Inanimate,3
0.15,right,1,5.0489,,,,,,chair,Stim/OBJ (12)_IC.png,,,6054,2022-01-20_14h04.11.655,KorNet_kid_deleted,2020.2.4,Win32,60,right,bicycle,0.15,0,17,17,7,1,12,Inanimate,3
0.1,right,1,4.8576,,,,,,fork,Stim/OBJ (22)_IC.png,,,6054,2022-01-20_14h04.11.655,KorNet_kid_deleted,2020.2.4,Win32,60,right,lamp,0.1507,0,18,18,15,1,22,Inanimate,3
0.1,right,1,6.5203,,,,,,leaf,Stim/OBJ (32)_IC.png,,,6054,2022-01-20_14h04.11.655,KorNet_kid_deleted,2020.2.4,Win32,60,right,chair,0.0892,0,19,19,22,1,32,Inanimate,3
0.1,left,1,5.1304,,,,,,airplane,Stim/OBJ (1)_IC.png,,,6054,2022-01-20_14h04.11.655,KorNet_kid_deleted,2020.2.4,Win32,60,left,flower,0.0927,0,20,20,0,1,1,Inanimate,3
0.1,right,1,4.9201,,,,,,tree,Stim/OBJ (44)_IC.png,,,6054,2022-01-20_14h04.11.655,KorNet_kid_deleted,2020.2.4,Win32,60,right,watch,0.0994,0,21,21,26,1,44,Inanimate,3
0.1,left,0,5.4122,,,,,,fish,Stim/OBJ (19)_IC.png,,,6054,2022-01-20_14h04.11.655,KorNet_kid_deleted,2020.2.4,Win32,60,right,cat,0.0918,0,22,22,12,1,19,Animate,3
0.1,left,1,5.2921,,,,,,kite,Stim/OBJ (30)_IC.png,,,6054,2022-01-20_14h04.11.655,KorNet_kid_deleted,2020.2.4,Win32,60,left,key,0.0978,0,23,23,20,1,30,Inanimate,3
0.1,left,1,4.861,,,,,,butterfly,Stim/OBJ (10)_IC.png,,,6054,2022-01-20_14h04.11.655,KorNet_kid_deleted,2020.2.4,Win32,60,left,cat,0.0995,0,24,24,5,1,10,Animate,3
0.1,right,1,6.4079,,,,,,bicycle,Stim/OBJ (7)_IC.png,,,6054,2022-01-20_14h04.11.655,KorNet_kid_deleted,2020.2.4,Win32,60,right,key,0.0996,0,25,25,3,1,7,Inanimate,3
0.1,right,1,5.5309,,,,,,elephant,Stim/OBJ (18)_IC.png,,,6054,2022-01-20_14h04.11.655,KorNet_kid_deleted,2020.2.4,Win32,60,right,foot,0.0902,0,26,26,11,1,18,Animate,3
0.1,right,0,6.2781,,,,,,spoon,Stim/OBJ (41)_IC.png,,,6054,2022-01-20_14h04.11.655,KorNet_kid_deleted,2020.2.4,Win32,60,left,watch,0.0935,0,27,27,24,1,41,Inanimate,3
0.1,right,1,4.6097,,,,,,apple,Stim/OBJ (4)_IC.png,,,6054,2022-01-20_14h04.11.655,KorNet_kid_deleted,2020.2.4,Win32,60,right,key,0.0882,0,28,28,1,1,4,Inanimate,3
0.1,left,0,6.3507,,,,,,flower,Stim/OBJ (20)_IC.png,,,6054,2022-01-20_14h04.11.655,KorNet_kid_deleted,2020.2.4,Win32,60,right,toothbrush,0.0929,0,29,29,13,1,20,Inanimate,3
