Duration,resp.keys,resp.corr,resp.rt,pracTrials.thisRepN,pracTrials.thisTrialN,pracTrials.thisN,pracTrials.thisIndex,pracTrials.ran,objLabel,imFile,distractLabel,corr,participant,date,expName,psychopyVersion,OS,frameRate,Corr,objDistract,py_duration,trials.thisRepN,trials.thisTrialN,trials.thisN,trials.thisIndex,trials.ran,objNum,animType,condition
0.3,left,1,18.9716,0,0,0,0,1,shoe,Stim/Prac (1).jpg,phone,left,6071,2022-01-10_14h06.23.546,KorNet_kid_deleted,2020.2.4,MacIntel,60,,,,,,,,,,,
0.3,right,1,5.4872,0,1,1,1,1,castle,Stim/Prac (2).png,car,right,6071,2022-01-10_14h06.23.546,KorNet_kid_deleted,2020.2.4,MacIntel,60,,,,,,,,,,,
0.25,right,1,5.7835,0,2,2,2,1,balloon,Stim/Prac (3).jpg,computer,right,6071,2022-01-10_14h06.23.546,KorNet_kid_deleted,2020.2.4,MacIntel,60,,,,,,,,,,,
0.25,left,1,6.7852,0,3,3,3,1,motorcycle,Stim/Prac (4).jpg,skateboard,left,6071,2022-01-10_14h06.23.546,KorNet_kid_deleted,2020.2.4,MacIntel,60,,,,,,,,,,,
0.3,left,1,14.8834,,,,,,guitar,Stim/OBJ (27)_IC.png,,,6071,2022-01-10_14h06.23.546,KorNet_kid_deleted,2020.2.4,MacIntel,60,left,fork,0.2995,0,0,0,18,1,27,Inanimate,3
0.3,right,0,18.8333,,,,,,apple,Stim/OBJ (4)_IC.png,,,6071,2022-01-10_14h06.23.546,KorNet_kid_deleted,2020.2.4,MacIntel,60,left,watch,0.2996,0,1,1,1,1,4,Inanimate,3
0.3,left,1,13.2796,,,,,,cat,Stim/OBJ (11)_IC.png,,,6071,2022-01-10_14h06.23.546,KorNet_kid_deleted,2020.2.4,MacIntel,60,left,bear,0.2991,0,2,2,6,1,11,Animate,3
0.3,right,0,5.8812,,,,,,umbrella,Stim/OBJ (47)_IC.png,,,6071,2022-01-10_14h06.23.546,KorNet_kid_deleted,2020.2.4,MacIntel,60,left,scissors,0.3006,0,3,3,29,1,47,Inanimate,3
0.3,left,1,24.6814,,,,,,squirrel,Stim/OBJ (42)_IC.png,,,6071,2022-01-10_14h06.23.546,KorNet_kid_deleted,2020.2.4,MacIntel,60,left,hand,0.3006,0,4,4,25,1,42,Animate,3
0.3,left,1,5.1349,,,,,,spoon,Stim/OBJ (41)_IC.png,,,6071,2022-01-10_14h06.23.546,KorNet_kid_deleted,2020.2.4,MacIntel,60,left,apple,0.2997,0,5,5,24,1,41,Inanimate,3
0.25,left,1,4.4344,,,,,,elephant,Stim/OBJ (18)_IC.png,,,6071,2022-01-10_14h06.23.546,KorNet_kid_deleted,2020.2.4,MacIntel,60,left,penguin,0.3006,0,6,6,11,1,18,Animate,3
0.25,right,1,5.2313,,,,,,flower,Stim/OBJ (20)_IC.png,,,6071,2022-01-10_14h06.23.546,KorNet_kid_deleted,2020.2.4,MacIntel,60,right,key,0.2513,0,7,7,13,1,20,Inanimate,3
0.25,right,1,4.4321,,,,,,cow,Stim/OBJ (14)_IC.png,,,6071,2022-01-10_14h06.23.546,KorNet_kid_deleted,2020.2.4,MacIntel,60,right,cat,0.2514,0,8,8,8,1,14,Animate,3
0.2,right,1,4.584,,,,,,fish,Stim/OBJ (19)_IC.png,,,6071,2022-01-10_14h06.23.546,KorNet_kid_deleted,2020.2.4,MacIntel,60,right,butterfly,0.249,0,9,9,12,1,19,Animate,3
0.2,right,0,5.7319,,,,,,bear,Stim/OBJ (6)_IC.png,,,6071,2022-01-10_14h06.23.546,KorNet_kid_deleted,2020.2.4,MacIntel,60,left,cow,0.1998,0,10,10,2,1,6,Animate,3
0.2,left,1,5.4832,,,,,,hand,Stim/OBJ (25)_IC.png,,,6071,2022-01-10_14h06.23.546,KorNet_kid_deleted,2020.2.4,MacIntel,60,left,bear,0.1999,0,11,11,17,1,25,Animate,3
0.2,right,1,5.6839,,,,,,duck,Stim/OBJ (17)_IC.png,,,6071,2022-01-10_14h06.23.546,KorNet_kid_deleted,2020.2.4,MacIntel,60,right,butterfly,0.1997,0,12,12,10,1,17,Animate,3
0.15,right,1,19.2764,,,,,,tree,Stim/OBJ (44)_IC.png,,,6071,2022-01-10_14h06.23.546,KorNet_kid_deleted,2020.2.4,MacIntel,60,right,umbrella,0.2012,0,13,13,26,1,44,Inanimate,3
0.15,left,0,4.876,,,,,,fork,Stim/OBJ (22)_IC.png,,,6071,2022-01-10_14h06.23.546,KorNet_kid_deleted,2020.2.4,MacIntel,60,right,kite,0.1504,0,14,14,15,1,22,Inanimate,3
0.15,right,0,5.6798,,,,,,airplane,Stim/OBJ (1)_IC.png,,,6071,2022-01-10_14h06.23.546,KorNet_kid_deleted,2020.2.4,MacIntel,60,left,glasses,0.1504,0,15,15,0,1,1,Inanimate,3
0.15,left,1,5.282,,,,,,foot,Stim/OBJ (21)_IC.png,,,6071,2022-01-10_14h06.23.546,KorNet_kid_deleted,2020.2.4,MacIntel,60,left,mouse,0.1492,0,16,16,14,1,21,Animate,3
0.15,right,0,5.2809,,,,,,bird,Stim/OBJ (8)_IC.png,,,6071,2022-01-10_14h06.23.546,KorNet_kid_deleted,2020.2.4,MacIntel,60,left,mouse,0.1512,0,17,17,4,1,8,Animate,3
0.15,right,1,4.3335,,,,,,chair,Stim/OBJ (12)_IC.png,,,6071,2022-01-10_14h06.23.546,KorNet_kid_deleted,2020.2.4,MacIntel,60,right,fork,0.1496,0,18,18,7,1,12,Inanimate,3
0.15,right,1,4.4789,,,,,,bicycle,Stim/OBJ (7)_IC.png,,,6071,2022-01-10_14h06.23.546,KorNet_kid_deleted,2020.2.4,MacIntel,60,right,kite,0.1499,0,19,19,3,1,7,Inanimate,3
0.15,right,0,4.4842,,,,,,rabbit,Stim/OBJ (38)_IC.png,,,6071,2022-01-10_14h06.23.546,KorNet_kid_deleted,2020.2.4,MacIntel,60,left,foot,0.1498,0,20,20,23,1,38,Animate,3
0.15,left,1,4.5838,,,,,,leaf,Stim/OBJ (32)_IC.png,,,6071,2022-01-10_14h06.23.546,KorNet_kid_deleted,2020.2.4,MacIntel,60,left,apple,0.1505,0,21,21,22,1,32,Inanimate,3
0.15,right,1,5.5372,,,,,,truck,Stim/OBJ (45)_IC.png,,,6071,2022-01-10_14h06.23.546,KorNet_kid_deleted,2020.2.4,MacIntel,60,right,umbrella,0.15,0,22,22,27,1,45,Inanimate,3
0.1,right,1,13.1504,,,,,,butterfly,Stim/OBJ (10)_IC.png,,,6071,2022-01-10_14h06.23.546,KorNet_kid_deleted,2020.2.4,MacIntel,60,right,bear,0.1506,0,23,23,5,1,10,Animate,3
0.1,right,1,15.8382,,,,,,lamp,Stim/OBJ (31)_IC.png,,,6071,2022-01-10_14h06.23.546,KorNet_kid_deleted,2020.2.4,MacIntel,60,right,flower,0.1011,0,24,24,21,1,31,Inanimate,3
0.1,right,1,4.9914,,,,,,turtle,Stim/OBJ (46)_IC.png,,,6071,2022-01-10_14h06.23.546,KorNet_kid_deleted,2020.2.4,MacIntel,60,right,hand,0.1024,0,25,25,28,1,46,Animate,3
0.1,left,1,4.0865,,,,,,kite,Stim/OBJ (30)_IC.png,,,6071,2022-01-10_14h06.23.546,KorNet_kid_deleted,2020.2.4,MacIntel,60,left,lamp,0.1005,0,26,26,20,1,30,Inanimate,3
0.1,left,1,5.1392,,,,,,key,Stim/OBJ (29)_IC.png,,,6071,2022-01-10_14h06.23.546,KorNet_kid_deleted,2020.2.4,MacIntel,60,left,kite,0.0998,0,27,27,19,1,29,Inanimate,3
0.1,left,0,5.6361,,,,,,dog,Stim/OBJ (16)_IC.png,,,6071,2022-01-10_14h06.23.546,KorNet_kid_deleted,2020.2.4,MacIntel,60,right,frog,0.1004,0,28,28,9,1,16,Animate,3
0.1,left,1,7.2371,,,,,,frog,Stim/OBJ (23)_IC.png,,,6071,2022-01-10_14h06.23.546,KorNet_kid_deleted,2020.2.4,MacIntel,60,left,cat,0.0999,0,29,29,16,1,23,Animate,3
