Duration,resp.keys,resp.corr,resp.rt,pracTrials.thisRepN,pracTrials.thisTrialN,pracTrials.thisN,pracTrials.thisIndex,pracTrials.ran,objLabel,imFile,distractLabel,corr,participant,date,expName,psychopyVersion,OS,frameRate,Corr,objDistract,py_duration,trials.thisRepN,trials.thisTrialN,trials.thisN,trials.thisIndex,trials.ran,objNum,animType,condition
0.3,left,1,9.0354,0,0,0,3,1,motorcycle,Stim/Prac (4).jpg,skateboard,left,6110,2022-06-15_11h34.35.668,KorNet_kid_deleted,2020.2.4,MacIntel,60,,,,,,,,,,,
0.3,right,1,2.5729,0,1,1,2,1,balloon,Stim/Prac (3).jpg,computer,right,6110,2022-06-15_11h34.35.668,KorNet_kid_deleted,2020.2.4,MacIntel,60,,,,,,,,,,,
0.25,right,1,2.733,0,2,2,1,1,castle,Stim/Prac (2).png,car,right,6110,2022-06-15_11h34.35.668,KorNet_kid_deleted,2020.2.4,MacIntel,60,,,,,,,,,,,
0.25,left,1,4.3828,0,3,3,0,1,shoe,Stim/Prac (1).jpg,phone,left,6110,2022-06-15_11h34.35.668,KorNet_kid_deleted,2020.2.4,MacIntel,60,,,,,,,,,,,
0.3,left,1,10.8718,,,,,,airplane,Stim/OBJ (1)_IC.png,,,6110,2022-06-15_11h34.35.668,KorNet_kid_deleted,2020.2.4,MacIntel,60,left,guitar,0.3009,0,0,0,0,1,1,Inanimate,3
0.3,left,0,14.0725,,,,,,frog,Stim/OBJ (23)_IC.png,,,6110,2022-06-15_11h34.35.668,KorNet_kid_deleted,2020.2.4,MacIntel,60,right,bird,0.2997,0,1,1,16,1,23,Animate,3
0.3,left,1,13.9104,,,,,,leaf,Stim/OBJ (32)_IC.png,,,6110,2022-06-15_11h34.35.668,KorNet_kid_deleted,2020.2.4,MacIntel,60,left,key,0.2999,0,2,2,22,1,32,Inanimate,3
0.3,right,1,8.7527,,,,,,fork,Stim/OBJ (22)_IC.png,,,6110,2022-06-15_11h34.35.668,KorNet_kid_deleted,2020.2.4,MacIntel,60,right,tree,0.3,0,3,3,15,1,22,Inanimate,3
0.25,left,1,7.8468,,,,,,rabbit,Stim/OBJ (38)_IC.png,,,6110,2022-06-15_11h34.35.668,KorNet_kid_deleted,2020.2.4,MacIntel,60,left,elephant,0.3003,0,4,4,23,1,38,Animate,3
0.25,right,0,10.0825,,,,,,kite,Stim/OBJ (30)_IC.png,,,6110,2022-06-15_11h34.35.668,KorNet_kid_deleted,2020.2.4,MacIntel,60,left,toothbrush,0.2501,0,5,5,20,1,30,Inanimate,3
0.25,left,0,8.2497,,,,,,bicycle,Stim/OBJ (7)_IC.png,,,6110,2022-06-15_11h34.35.668,KorNet_kid_deleted,2020.2.4,MacIntel,60,right,airplane,0.2499,0,6,6,3,1,7,Inanimate,3
0.25,left,1,5.7728,,,,,,truck,Stim/OBJ (45)_IC.png,,,6110,2022-06-15_11h34.35.668,KorNet_kid_deleted,2020.2.4,MacIntel,60,left,key,0.2504,0,7,7,27,1,45,Inanimate,3
0.25,right,0,6.1591,,,,,,turtle,Stim/OBJ (46)_IC.png,,,6110,2022-06-15_11h34.35.668,KorNet_kid_deleted,2020.2.4,MacIntel,60,left,mouse,0.2503,0,8,8,28,1,46,Animate,3
0.25,left,1,6.417,,,,,,tree,Stim/OBJ (44)_IC.png,,,6110,2022-06-15_11h34.35.668,KorNet_kid_deleted,2020.2.4,MacIntel,60,left,lamp,0.2505,0,9,9,26,1,44,Inanimate,3
0.25,right,1,7.3337,,,,,,key,Stim/OBJ (29)_IC.png,,,6110,2022-06-15_11h34.35.668,KorNet_kid_deleted,2020.2.4,MacIntel,60,right,bicycle,0.2498,0,10,10,19,1,29,Inanimate,3
0.25,left,0,7.2079,,,,,,fish,Stim/OBJ (19)_IC.png,,,6110,2022-06-15_11h34.35.668,KorNet_kid_deleted,2020.2.4,MacIntel,60,right,bird,0.2499,0,11,11,12,1,19,Animate,3
0.25,left,0,6.3034,,,,,,guitar,Stim/OBJ (27)_IC.png,,,6110,2022-06-15_11h34.35.668,KorNet_kid_deleted,2020.2.4,MacIntel,60,right,flower,0.2507,0,12,12,18,1,27,Inanimate,3
0.25,right,1,5.5467,,,,,,bear,Stim/OBJ (6)_IC.png,,,6110,2022-06-15_11h34.35.668,KorNet_kid_deleted,2020.2.4,MacIntel,60,right,butterfly,0.2503,0,13,13,2,1,6,Animate,3
0.25,left,1,4.504,,,,,,duck,Stim/OBJ (17)_IC.png,,,6110,2022-06-15_11h34.35.668,KorNet_kid_deleted,2020.2.4,MacIntel,60,left,foot,0.2508,0,14,14,10,1,17,Animate,3
0.2,right,1,6.2066,,,,,,chair,Stim/OBJ (12)_IC.png,,,6110,2022-06-15_11h34.35.668,KorNet_kid_deleted,2020.2.4,MacIntel,60,right,toothbrush,0.2487,0,15,15,7,1,12,Inanimate,3
0.2,right,1,5.8472,,,,,,hand,Stim/OBJ (25)_IC.png,,,6110,2022-06-15_11h34.35.668,KorNet_kid_deleted,2020.2.4,MacIntel,60,right,kangaroo,0.1999,0,16,16,17,1,25,Animate,3
0.2,right,0,7.7582,,,,,,foot,Stim/OBJ (21)_IC.png,,,6110,2022-06-15_11h34.35.668,KorNet_kid_deleted,2020.2.4,MacIntel,60,left,dog,0.2,0,17,17,14,1,21,Animate,3
0.2,left,1,5.8618,,,,,,bird,Stim/OBJ (8)_IC.png,,,6110,2022-06-15_11h34.35.668,KorNet_kid_deleted,2020.2.4,MacIntel,60,left,cat,0.1995,0,18,18,4,1,8,Animate,3
0.2,right,0,8.5168,,,,,,cat,Stim/OBJ (11)_IC.png,,,6110,2022-06-15_11h34.35.668,KorNet_kid_deleted,2020.2.4,MacIntel,60,left,dog,0.2007,0,19,19,6,1,11,Animate,3
0.2,right,1,6.6531,,,,,,butterfly,Stim/OBJ (10)_IC.png,,,6110,2022-06-15_11h34.35.668,KorNet_kid_deleted,2020.2.4,MacIntel,60,right,elephant,0.202,0,20,20,5,1,10,Animate,3
0.2,left,1,8.6817,,,,,,umbrella,Stim/OBJ (47)_IC.png,,,6110,2022-06-15_11h34.35.668,KorNet_kid_deleted,2020.2.4,MacIntel,60,left,fork,0.2011,0,21,21,29,1,47,Inanimate,3
0.15,right,1,5.3325,,,,,,apple,Stim/OBJ (4)_IC.png,,,6110,2022-06-15_11h34.35.668,KorNet_kid_deleted,2020.2.4,MacIntel,60,right,bicycle,0.1997,0,22,22,1,1,4,Inanimate,3
0.15,right,1,7.291,,,,,,cow,Stim/OBJ (14)_IC.png,,,6110,2022-06-15_11h34.35.668,KorNet_kid_deleted,2020.2.4,MacIntel,60,right,duck,0.1497,0,23,23,8,1,14,Animate,3
0.15,left,1,8.0927,,,,,,spoon,Stim/OBJ (41)_IC.png,,,6110,2022-06-15_11h34.35.668,KorNet_kid_deleted,2020.2.4,MacIntel,60,left,key,0.1507,0,24,24,24,1,41,Inanimate,3
0.1,right,1,11.7584,,,,,,lamp,Stim/OBJ (31)_IC.png,,,6110,2022-06-15_11h34.35.668,KorNet_kid_deleted,2020.2.4,MacIntel,60,right,kite,0.1501,0,25,25,21,1,31,Inanimate,3
0.1,right,1,7.5484,,,,,,dog,Stim/OBJ (16)_IC.png,,,6110,2022-06-15_11h34.35.668,KorNet_kid_deleted,2020.2.4,MacIntel,60,right,turtle,0.1004,0,26,26,9,1,16,Animate,3
0.1,left,0,7.553,,,,,,flower,Stim/OBJ (20)_IC.png,,,6110,2022-06-15_11h34.35.668,KorNet_kid_deleted,2020.2.4,MacIntel,60,right,watch,0.0989,0,27,27,13,1,20,Inanimate,3
0.1,left,1,7.1813,,,,,,squirrel,Stim/OBJ (42)_IC.png,,,6110,2022-06-15_11h34.35.668,KorNet_kid_deleted,2020.2.4,MacIntel,60,left,foot,0.1009,0,28,28,25,1,42,Animate,3
0.1,right,0,7.6184,,,,,,elephant,Stim/OBJ (18)_IC.png,,,6110,2022-06-15_11h34.35.668,KorNet_kid_deleted,2020.2.4,MacIntel,60,left,ant,0.1002,0,29,29,11,1,18,Animate,3
