Duration,resp.keys,resp.corr,resp.rt,pracTrials.thisRepN,pracTrials.thisTrialN,pracTrials.thisN,pracTrials.thisIndex,pracTrials.ran,objLabel,imFile,distractLabel,corr,participant,date,expName,psychopyVersion,OS,frameRate,Corr,objDistract,py_duration,trials.thisRepN,trials.thisTrialN,trials.thisN,trials.thisIndex,trials.ran,objNum,animType,condition
0.3,left,1,6.619,0,0,0,3,1,motorcycle,Stim/Prac (4).jpg,skateboard,left,6013,2021-07-22_09h32.57.592,KorNet_kid_complete,2020.2.4,MacIntel,60,,,,,,,,,,,
0.3,right,1,5.824,0,1,1,1,1,castle,Stim/Prac (2).png,car,right,6013,2021-07-22_09h32.57.592,KorNet_kid_complete,2020.2.4,MacIntel,60,,,,,,,,,,,
0.25,right,1,5.15,0,2,2,2,1,balloon,Stim/Prac (3).jpg,computer,right,6013,2021-07-22_09h32.57.592,KorNet_kid_complete,2020.2.4,MacIntel,60,,,,,,,,,,,
0.25,left,1,5.581,0,3,3,0,1,shoe,Stim/Prac (1).jpg,phone,left,6013,2021-07-22_09h32.57.592,KorNet_kid_complete,2020.2.4,MacIntel,60,,,,,,,,,,,
0.3,left,1,2.747,,,,,,bear,Stim/Complete/OBJ (6).png,,,6013,2021-07-22_09h32.57.592,KorNet_kid_complete,2020.2.4,MacIntel,60,left,elephant,0.289,0,0,0,2,1,6,Animate,1
0.3,right,1,3.683,,,,,,bicycle,Stim/Complete/OBJ (7).png,,,6013,2021-07-22_09h32.57.592,KorNet_kid_complete,2020.2.4,MacIntel,60,right,scissors,0.305,0,1,1,3,1,7,Inanimate,1
0.25,left,1,1.878,,,,,,apple,Stim/Complete/OBJ (4).png,,,6013,2021-07-22_09h32.57.592,KorNet_kid_complete,2020.2.4,MacIntel,60,left,key,0.3,0,2,2,1,1,4,Inanimate,1
0.25,left,1,1.787,,,,,,chair,Stim/Complete/OBJ (12).png,,,6013,2021-07-22_09h32.57.592,KorNet_kid_complete,2020.2.4,MacIntel,60,left,tree,0.25,0,3,3,7,1,12,Inanimate,1
0.25,left,0,10.065,,,,,,key,Stim/Complete/OBJ (29).png,,,6013,2021-07-22_09h32.57.592,KorNet_kid_complete,2020.2.4,MacIntel,60,right,spoon,0.25,0,4,4,19,1,29,Inanimate,1
0.25,right,1,2.08,,,,,,dog,Stim/Complete/OBJ (16).png,,,6013,2021-07-22_09h32.57.592,KorNet_kid_complete,2020.2.4,MacIntel,60,right,rabbit,0.25,0,5,5,9,1,16,Animate,1
0.25,right,1,2.084,,,,,,rabbit,Stim/Complete/OBJ (38).png,,,6013,2021-07-22_09h32.57.592,KorNet_kid_complete,2020.2.4,MacIntel,60,right,kangaroo,0.251,0,6,6,23,1,38,Animate,1
0.2,right,1,2.427,,,,,,cat,Stim/Complete/OBJ (11).png,,,6013,2021-07-22_09h32.57.592,KorNet_kid_complete,2020.2.4,MacIntel,60,right,rabbit,0.25,0,7,7,6,1,11,Animate,1
0.2,right,1,2.022,,,,,,butterfly,Stim/Complete/OBJ (10).png,,,6013,2021-07-22_09h32.57.592,KorNet_kid_complete,2020.2.4,MacIntel,60,right,cat,0.198,0,8,8,5,1,10,Animate,1
0.2,right,1,1.828,,,,,,spoon,Stim/Complete/OBJ (41).png,,,6013,2021-07-22_09h32.57.592,KorNet_kid_complete,2020.2.4,MacIntel,60,right,truck,0.2,0,9,9,24,1,41,Inanimate,1
0.15,right,1,1.935,,,,,,umbrella,Stim/Complete/OBJ (47).png,,,6013,2021-07-22_09h32.57.592,KorNet_kid_complete,2020.2.4,MacIntel,60,right,chair,0.199,0,10,10,29,1,47,Inanimate,1
0.15,right,1,1.786,,,,,,fork,Stim/Complete/OBJ (22).png,,,6013,2021-07-22_09h32.57.592,KorNet_kid_complete,2020.2.4,MacIntel,60,right,key,0.154,0,11,11,15,1,22,Inanimate,1
0.15,left,1,2.239,,,,,,guitar,Stim/Complete/OBJ (27).png,,,6013,2021-07-22_09h32.57.592,KorNet_kid_complete,2020.2.4,MacIntel,60,left,chair,0.15,0,12,12,18,1,27,Inanimate,1
0.1,right,1,2.182,,,,,,flower,Stim/Complete/OBJ (20).png,,,6013,2021-07-22_09h32.57.592,KorNet_kid_complete,2020.2.4,MacIntel,60,right,lamp,0.15,0,13,13,13,1,20,Inanimate,1
0.1,right,1,10.434,,,,,,foot,Stim/Complete/OBJ (21).png,,,6013,2021-07-22_09h32.57.592,KorNet_kid_complete,2020.2.4,MacIntel,60,right,deer,0.101,0,14,14,14,1,21,Animate,1
0.1,right,1,2.024,,,,,,fish,Stim/Complete/OBJ (19).png,,,6013,2021-07-22_09h32.57.592,KorNet_kid_complete,2020.2.4,MacIntel,60,right,squirrel,0.098,0,15,15,12,1,19,Animate,1
0.1,right,1,3.034,,,,,,frog,Stim/Complete/OBJ (23).png,,,6013,2021-07-22_09h32.57.592,KorNet_kid_complete,2020.2.4,MacIntel,60,right,cow,0.1,0,16,16,16,1,23,Animate,1
0.1,right,1,2.082,,,,,,elephant,Stim/Complete/OBJ (18).png,,,6013,2021-07-22_09h32.57.592,KorNet_kid_complete,2020.2.4,MacIntel,60,right,frog,0.1,0,17,17,11,1,18,Animate,1
0.1,right,1,2.094,,,,,,tree,Stim/Complete/OBJ (44).png,,,6013,2021-07-22_09h32.57.592,KorNet_kid_complete,2020.2.4,MacIntel,60,right,truck,0.1,0,18,18,26,1,44,Inanimate,1
0.1,left,1,1.44,,,,,,hand,Stim/Complete/OBJ (25).png,,,6013,2021-07-22_09h32.57.592,KorNet_kid_complete,2020.2.4,MacIntel,60,left,penguin,0.099,0,19,19,17,1,25,Animate,1
0.1,right,1,7.833,,,,,,leaf,Stim/Complete/OBJ (32).png,,,6013,2021-07-22_09h32.57.592,KorNet_kid_complete,2020.2.4,MacIntel,60,right,apple,0.1,0,20,20,22,1,32,Inanimate,1
0.1,left,0,18.985,,,,,,airplane,Stim/Complete/OBJ (1).png,,,6013,2021-07-22_09h32.57.592,KorNet_kid_complete,2020.2.4,MacIntel,60,right,glasses,0.099,0,21,21,0,1,1,Inanimate,1
0.1,right,1,7.02,,,,,,bird,Stim/Complete/OBJ (8).png,,,6013,2021-07-22_09h32.57.592,KorNet_kid_complete,2020.2.4,MacIntel,60,right,foot,0.101,0,22,22,4,1,8,Animate,1
0.1,left,1,5.731,,,,,,cow,Stim/Complete/OBJ (14).png,,,6013,2021-07-22_09h32.57.592,KorNet_kid_complete,2020.2.4,MacIntel,60,left,kangaroo,0.101,0,23,23,8,1,14,Animate,1
0.1,left,1,1.946,,,,,,truck,Stim/Complete/OBJ (45).png,,,6013,2021-07-22_09h32.57.592,KorNet_kid_complete,2020.2.4,MacIntel,60,left,fork,0.096,0,24,24,27,1,45,Inanimate,1
0.1,left,1,1.883,,,,,,lamp,Stim/Complete/OBJ (31).png,,,6013,2021-07-22_09h32.57.592,KorNet_kid_complete,2020.2.4,MacIntel,60,left,scissors,0.101,0,25,25,21,1,31,Inanimate,1
0.1,left,1,4.532,,,,,,kite,Stim/Complete/OBJ (30).png,,,6013,2021-07-22_09h32.57.592,KorNet_kid_complete,2020.2.4,MacIntel,60,left,truck,0.099,0,26,26,20,1,30,Inanimate,1
0.1,right,1,2.981,,,,,,squirrel,Stim/Complete/OBJ (42).png,,,6013,2021-07-22_09h32.57.592,KorNet_kid_complete,2020.2.4,MacIntel,60,right,duck,0.097,0,27,27,25,1,42,Animate,1
0.1,right,0,6.38,,,,,,duck,Stim/Complete/OBJ (17).png,,,6013,2021-07-22_09h32.57.592,KorNet_kid_complete,2020.2.4,MacIntel,60,left,bird,0.102,0,28,28,10,1,17,Animate,1
0.1,left,1,2.933,,,,,,turtle,Stim/Complete/OBJ (46).png,,,6013,2021-07-22_09h32.57.592,KorNet_kid_complete,2020.2.4,MacIntel,60,left,cat,0.095,0,29,29,28,1,46,Animate,1
