Duration,resp.keys,resp.corr,resp.rt,pracTrials.thisRepN,pracTrials.thisTrialN,pracTrials.thisN,pracTrials.thisIndex,pracTrials.ran,objLabel,imFile,distractLabel,corr,participant,date,expName,psychopyVersion,OS,frameRate,,Corr,objDistract,py_duration,trials.thisRepN,trials.thisTrialN,trials.thisN,trials.thisIndex,trials.ran,objNum,animType,condition
0.3,left,1,9.78915,0,0,0,0,1,shoe,Stim/Prac (1).jpg,phone,left,6033,2021-05-20_09h04.06.982,KorNet_kid_complete,2020.2.4,Win32,60,6033,,,,,,,,,,,
0.3,right,1,8.711295,0,1,1,1,1,castle,Stim/Prac (2).png,car,right,6033,2021-05-20_09h04.06.982,KorNet_kid_complete,2020.2.4,Win32,60,6033,,,,,,,,,,,
0.25,right,1,5.681045,0,2,2,2,1,balloon,Stim/Prac (3).jpg,computer,right,6033,2021-05-20_09h04.06.982,KorNet_kid_complete,2020.2.4,Win32,60,6033,,,,,,,,,,,
0.25,left,1,7.74328,0,3,3,3,1,motorcycle,Stim/Prac (4).jpg,skateboard,left,6033,2021-05-20_09h04.06.982,KorNet_kid_complete,2020.2.4,Win32,60,6033,,,,,,,,,,,
0.3,left,1,13.013155,,,,,,bicycle,Stim/Complete/OBJ (7).png,,,6033,2021-05-20_09h04.06.982,KorNet_kid_complete,2020.2.4,Win32,60,6033,left,umbrella,0.295005,0,0,0,3,1,7,Inanimate,1
0.3,left,1,9.768115,,,,,,flower,Stim/Complete/OBJ (20).png,,,6033,2021-05-20_09h04.06.982,KorNet_kid_complete,2020.2.4,Win32,60,6033,left,apple,0.28927,0,1,1,13,1,20,Inanimate,1
0.25,left,1,7.362925,,,,,,truck,Stim/Complete/OBJ (45).png,,,6033,2021-05-20_09h04.06.982,KorNet_kid_complete,2020.2.4,Win32,60,6033,left,fork,0.29932,0,2,2,27,1,45,Inanimate,1
0.25,right,1,5.40102,,,,,,butterfly,Stim/Complete/OBJ (10).png,,,6033,2021-05-20_09h04.06.982,KorNet_kid_complete,2020.2.4,Win32,60,6033,right,turtle,0.24029,0,3,3,5,1,10,Animate,1
0.25,left,1,5.83012,,,,,,turtle,Stim/Complete/OBJ (46).png,,,6033,2021-05-20_09h04.06.982,KorNet_kid_complete,2020.2.4,Win32,60,6033,left,cat,0.249795,0,4,4,28,1,46,Animate,1
0.2,left,1,5.141395,,,,,,bird,Stim/Complete/OBJ (8).png,,,6033,2021-05-20_09h04.06.982,KorNet_kid_complete,2020.2.4,Win32,60,6033,left,frog,0.252495,0,5,5,4,1,8,Animate,1
0.2,right,0,7.756875,,,,,,cat,Stim/Complete/OBJ (11).png,,,6033,2021-05-20_09h04.06.982,KorNet_kid_complete,2020.2.4,Win32,60,6033,left,deer,0.19009,0,6,6,6,1,11,Animate,1
0.2,left,1,5.88596,,,,,,duck,Stim/Complete/OBJ (17).png,,,6033,2021-05-20_09h04.06.982,KorNet_kid_complete,2020.2.4,Win32,60,6033,left,mouse,0.20011,0,7,7,10,1,17,Animate,1
0.2,right,0,9.219605,,,,,,kite,Stim/Complete/OBJ (30).png,,,6033,2021-05-20_09h04.06.982,KorNet_kid_complete,2020.2.4,Win32,60,6033,left,toothbrush,0.187725,0,8,8,20,1,30,Inanimate,1
0.2,left,0,16.94067,,,,,,fork,Stim/Complete/OBJ (22).png,,,6033,2021-05-20_09h04.06.982,KorNet_kid_complete,2020.2.4,Win32,60,6033,right,toothbrush,0.20655,0,9,9,15,1,22,Inanimate,1
0.2,right,1,5.80139,,,,,,foot,Stim/Complete/OBJ (21).png,,,6033,2021-05-20_09h04.06.982,KorNet_kid_complete,2020.2.4,Win32,60,6033,right,fish,0.196,0,10,10,14,1,21,Animate,1
0.2,right,1,6.12774,,,,,,airplane,Stim/Complete/OBJ (1).png,,,6033,2021-05-20_09h04.06.982,KorNet_kid_complete,2020.2.4,Win32,60,6033,right,tree,0.19407,0,11,11,0,1,1,Inanimate,1
0.15,right,1,12.96412,,,,,,hand,Stim/Complete/OBJ (25).png,,,6033,2021-05-20_09h04.06.982,KorNet_kid_complete,2020.2.4,Win32,60,6033,right,deer,0.20087,0,12,12,17,1,25,Animate,1
0.15,left,0,7.93115,,,,,,spoon,Stim/Complete/OBJ (41).png,,,6033,2021-05-20_09h04.06.982,KorNet_kid_complete,2020.2.4,Win32,60,6033,right,leaf,0.148485,0,13,13,24,1,41,Inanimate,1
0.15,right,1,7.70308,,,,,,guitar,Stim/Complete/OBJ (27).png,,,6033,2021-05-20_09h04.06.982,KorNet_kid_complete,2020.2.4,Win32,60,6033,right,key,0.138715,0,14,14,18,1,27,Inanimate,1
0.15,right,1,9.98323,,,,,,bear,Stim/Complete/OBJ (6).png,,,6033,2021-05-20_09h04.06.982,KorNet_kid_complete,2020.2.4,Win32,60,6033,right,squirrel,0.155325,0,15,15,2,1,6,Animate,1
0.1,right,1,5.01602,,,,,,rabbit,Stim/Complete/OBJ (38).png,,,6033,2021-05-20_09h04.06.982,KorNet_kid_complete,2020.2.4,Win32,60,6033,right,squirrel,0.15293,0,16,16,23,1,38,Animate,1
0.1,right,1,6.56084,,,,,,fish,Stim/Complete/OBJ (19).png,,,6033,2021-05-20_09h04.06.982,KorNet_kid_complete,2020.2.4,Win32,60,6033,right,kangaroo,0.097615,0,17,17,12,1,19,Animate,1
0.1,left,1,8.714605,,,,,,chair,Stim/Complete/OBJ (12).png,,,6033,2021-05-20_09h04.06.982,KorNet_kid_complete,2020.2.4,Win32,60,6033,left,key,0.1008,0,18,18,7,1,12,Inanimate,1
0.1,left,1,6.514835,,,,,,frog,Stim/Complete/OBJ (23).png,,,6033,2021-05-20_09h04.06.982,KorNet_kid_complete,2020.2.4,Win32,60,6033,left,dog,0.09937,0,19,19,16,1,23,Animate,1
0.1,left,0,7.59682,,,,,,dog,Stim/Complete/OBJ (16).png,,,6033,2021-05-20_09h04.06.982,KorNet_kid_complete,2020.2.4,Win32,60,6033,right,rabbit,0.10273,0,20,20,9,1,16,Animate,1
0.1,right,1,7.622745,,,,,,umbrella,Stim/Complete/OBJ (47).png,,,6033,2021-05-20_09h04.06.982,KorNet_kid_complete,2020.2.4,Win32,60,6033,right,guitar,0.088715,0,21,21,29,1,47,Inanimate,1
0.1,left,1,9.233575,,,,,,squirrel,Stim/Complete/OBJ (42).png,,,6033,2021-05-20_09h04.06.982,KorNet_kid_complete,2020.2.4,Win32,60,6033,left,mouse,0.0995,0,22,22,25,1,42,Animate,1
0.1,left,0,8.4898,,,,,,cow,Stim/Complete/OBJ (14).png,,,6033,2021-05-20_09h04.06.982,KorNet_kid_complete,2020.2.4,Win32,60,6033,right,butterfly,0.08941,0,23,23,8,1,14,Animate,1
0.1,left,1,11.061255,,,,,,leaf,Stim/Complete/OBJ (32).png,,,6033,2021-05-20_09h04.06.982,KorNet_kid_complete,2020.2.4,Win32,60,6033,left,truck,0.098515,0,24,24,22,1,32,Inanimate,1
0.1,right,0,7.233365,,,,,,key,Stim/Complete/OBJ (29).png,,,6033,2021-05-20_09h04.06.982,KorNet_kid_complete,2020.2.4,Win32,60,6033,left,apple,0.09275,0,25,25,19,1,29,Inanimate,1
0.1,right,1,5.425965,,,,,,elephant,Stim/Complete/OBJ (18).png,,,6033,2021-05-20_09h04.06.982,KorNet_kid_complete,2020.2.4,Win32,60,6033,right,bear,0.111375,0,26,26,11,1,18,Animate,1
0.1,right,0,5.01699,,,,,,apple,Stim/Complete/OBJ (4).png,,,6033,2021-05-20_09h04.06.982,KorNet_kid_complete,2020.2.4,Win32,60,6033,left,scissors,0.101025,0,27,27,1,1,4,Inanimate,1
0.1,right,1,6.090505,,,,,,tree,Stim/Complete/OBJ (44).png,,,6033,2021-05-20_09h04.06.982,KorNet_kid_complete,2020.2.4,Win32,60,6033,right,chair,0.09505,0,28,28,26,1,44,Inanimate,1
0.1,right,1,5.435945,,,,,,lamp,Stim/Complete/OBJ (31).png,,,6033,2021-05-20_09h04.06.982,KorNet_kid_complete,2020.2.4,Win32,60,6033,right,key,0.09589,0,29,29,21,1,31,Inanimate,1
