Duration,resp.keys,resp.corr,resp.rt,pracTrials.thisRepN,pracTrials.thisTrialN,pracTrials.thisN,pracTrials.thisIndex,pracTrials.ran,objLabel,imFile,distractLabel,corr,participant,date,expName,psychopyVersion,OS,frameRate,Corr,objDistract,py_duration,trials.thisRepN,trials.thisTrialN,trials.thisN,trials.thisIndex,trials.ran,objNum,animType,condition
0.3,right,1,6.6808,0,0,0,1,1,castle,Stim/Prac (2).png,car,right,6055,2022-02-15_16h35.47.745,KorNet_kid_complete,2020.2.4,Win32,60,,,,,,,,,,,
0.3,left,1,4.9461,0,1,1,0,1,shoe,Stim/Prac (1).jpg,phone,left,6055,2022-02-15_16h35.47.745,KorNet_kid_complete,2020.2.4,Win32,60,,,,,,,,,,,
0.25,right,1,4.7754,0,2,2,2,1,balloon,Stim/Prac (3).jpg,computer,right,6055,2022-02-15_16h35.47.745,KorNet_kid_complete,2020.2.4,Win32,60,,,,,,,,,,,
0.25,left,1,5.4456,0,3,3,3,1,motorcycle,Stim/Prac (4).jpg,skateboard,left,6055,2022-02-15_16h35.47.745,KorNet_kid_complete,2020.2.4,Win32,60,,,,,,,,,,,
0.3,right,1,4.5852,,,,,,rabbit,Stim/Complete/OBJ (38).png,,,6055,2022-02-15_16h35.47.745,KorNet_kid_complete,2020.2.4,Win32,60,right,cat,0.3005,0,0,0,23,1,38,Animate,1
0.3,right,1,4.4084,,,,,,cat,Stim/Complete/OBJ (11).png,,,6055,2022-02-15_16h35.47.745,KorNet_kid_complete,2020.2.4,Win32,60,right,ant,0.3016,0,1,1,6,1,11,Animate,1
0.25,right,1,4.9758,,,,,,spoon,Stim/Complete/OBJ (41).png,,,6055,2022-02-15_16h35.47.745,KorNet_kid_complete,2020.2.4,Win32,60,right,chair,0.3001,0,2,2,24,1,41,Inanimate,1
0.25,right,1,5.1661,,,,,,cow,Stim/Complete/OBJ (14).png,,,6055,2022-02-15_16h35.47.745,KorNet_kid_complete,2020.2.4,Win32,60,right,frog,0.2502,0,3,3,8,1,14,Animate,1
0.25,left,1,4.7524,,,,,,hand,Stim/Complete/OBJ (25).png,,,6055,2022-02-15_16h35.47.745,KorNet_kid_complete,2020.2.4,Win32,60,left,deer,0.2499,0,4,4,17,1,25,Animate,1
0.2,right,1,4.185,,,,,,dog,Stim/Complete/OBJ (16).png,,,6055,2022-02-15_16h35.47.745,KorNet_kid_complete,2020.2.4,Win32,60,right,fish,0.2503,0,5,5,9,1,16,Animate,1
0.2,left,1,4.6864,,,,,,fork,Stim/Complete/OBJ (22).png,,,6055,2022-02-15_16h35.47.745,KorNet_kid_complete,2020.2.4,Win32,60,left,tree,0.2001,0,6,6,15,1,22,Inanimate,1
0.2,right,1,4.206,,,,,,duck,Stim/Complete/OBJ (17).png,,,6055,2022-02-15_16h35.47.745,KorNet_kid_complete,2020.2.4,Win32,60,right,bear,0.2003,0,7,7,10,1,17,Animate,1
0.15,left,1,4.6479,,,,,,butterfly,Stim/Complete/OBJ (10).png,,,6055,2022-02-15_16h35.47.745,KorNet_kid_complete,2020.2.4,Win32,60,left,duck,0.2,0,8,8,5,1,10,Animate,1
0.15,left,1,4.8164,,,,,,key,Stim/Complete/OBJ (29).png,,,6055,2022-02-15_16h35.47.745,KorNet_kid_complete,2020.2.4,Win32,60,left,toothbrush,0.1501,0,9,9,19,1,29,Inanimate,1
0.15,left,0,4.5586,,,,,,bear,Stim/Complete/OBJ (6).png,,,6055,2022-02-15_16h35.47.745,KorNet_kid_complete,2020.2.4,Win32,60,right,cat,0.1502,0,10,10,2,1,6,Animate,1
0.15,left,1,4.5682,,,,,,leaf,Stim/Complete/OBJ (32).png,,,6055,2022-02-15_16h35.47.745,KorNet_kid_complete,2020.2.4,Win32,60,left,flower,0.1498,0,11,11,22,1,32,Inanimate,1
0.15,right,1,4.4331,,,,,,kite,Stim/Complete/OBJ (30).png,,,6055,2022-02-15_16h35.47.745,KorNet_kid_complete,2020.2.4,Win32,60,right,spoon,0.15,0,12,12,20,1,30,Inanimate,1
0.1,right,1,4.1994,,,,,,apple,Stim/Complete/OBJ (4).png,,,6055,2022-02-15_16h35.47.745,KorNet_kid_complete,2020.2.4,Win32,60,right,chair,0.1499,0,13,13,1,1,4,Inanimate,1
0.1,right,1,4.5458,,,,,,bird,Stim/Complete/OBJ (8).png,,,6055,2022-02-15_16h35.47.745,KorNet_kid_complete,2020.2.4,Win32,60,right,hand,0.1001,0,14,14,4,1,8,Animate,1
0.1,left,1,5.5662,,,,,,bicycle,Stim/Complete/OBJ (7).png,,,6055,2022-02-15_16h35.47.745,KorNet_kid_complete,2020.2.4,Win32,60,left,airplane,0.1005,0,15,15,3,1,7,Inanimate,1
0.1,right,1,4.4834,,,,,,umbrella,Stim/Complete/OBJ (47).png,,,6055,2022-02-15_16h35.47.745,KorNet_kid_complete,2020.2.4,Win32,60,right,key,0.1002,0,16,16,29,1,47,Inanimate,1
0.1,right,1,4.1826,,,,,,flower,Stim/Complete/OBJ (20).png,,,6055,2022-02-15_16h35.47.745,KorNet_kid_complete,2020.2.4,Win32,60,right,airplane,0.1002,0,17,17,13,1,20,Inanimate,1
0.1,left,1,4.6565,,,,,,turtle,Stim/Complete/OBJ (46).png,,,6055,2022-02-15_16h35.47.745,KorNet_kid_complete,2020.2.4,Win32,60,left,elephant,0.1002,0,18,18,28,1,46,Animate,1
0.1,left,1,4.5428,,,,,,foot,Stim/Complete/OBJ (21).png,,,6055,2022-02-15_16h35.47.745,KorNet_kid_complete,2020.2.4,Win32,60,left,kangaroo,0.1,0,19,19,14,1,21,Animate,1
0.1,left,1,4.4948,,,,,,elephant,Stim/Complete/OBJ (18).png,,,6055,2022-02-15_16h35.47.745,KorNet_kid_complete,2020.2.4,Win32,60,left,duck,0.1004,0,20,20,11,1,18,Animate,1
0.1,right,1,4.2538,,,,,,chair,Stim/Complete/OBJ (12).png,,,6055,2022-02-15_16h35.47.745,KorNet_kid_complete,2020.2.4,Win32,60,right,airplane,0.0997,0,21,21,7,1,12,Inanimate,1
0.1,left,1,5.4815,,,,,,airplane,Stim/Complete/OBJ (1).png,,,6055,2022-02-15_16h35.47.745,KorNet_kid_complete,2020.2.4,Win32,60,left,fork,0.1001,0,22,22,0,1,1,Inanimate,1
0.1,left,1,5.0316,,,,,,squirrel,Stim/Complete/OBJ (42).png,,,6055,2022-02-15_16h35.47.745,KorNet_kid_complete,2020.2.4,Win32,60,left,deer,0.1002,0,23,23,25,1,42,Animate,1
0.1,right,1,4.8998,,,,,,truck,Stim/Complete/OBJ (45).png,,,6055,2022-02-15_16h35.47.745,KorNet_kid_complete,2020.2.4,Win32,60,right,toothbrush,0.1001,0,24,24,27,1,45,Inanimate,1
0.1,left,1,11.2906,,,,,,frog,Stim/Complete/OBJ (23).png,,,6055,2022-02-15_16h35.47.745,KorNet_kid_complete,2020.2.4,Win32,60,left,bird,0.1007,0,25,25,16,1,23,Animate,1
0.1,right,1,4.3517,,,,,,lamp,Stim/Complete/OBJ (31).png,,,6055,2022-02-15_16h35.47.745,KorNet_kid_complete,2020.2.4,Win32,60,right,fork,0.1001,0,26,26,21,1,31,Inanimate,1
0.1,left,1,4.7005,,,,,,guitar,Stim/Complete/OBJ (27).png,,,6055,2022-02-15_16h35.47.745,KorNet_kid_complete,2020.2.4,Win32,60,left,lamp,0.1,0,27,27,18,1,27,Inanimate,1
0.1,right,1,4.1708,,,,,,tree,Stim/Complete/OBJ (44).png,,,6055,2022-02-15_16h35.47.745,KorNet_kid_complete,2020.2.4,Win32,60,right,key,0.1001,0,28,28,26,1,44,Inanimate,1
0.1,left,1,5.1201,,,,,,fish,Stim/Complete/OBJ (19).png,,,6055,2022-02-15_16h35.47.745,KorNet_kid_complete,2020.2.4,Win32,60,left,rabbit,0.1002,0,29,29,12,1,19,Animate,1
