Duration,resp.keys,resp.corr,resp.rt,pracTrials.thisRepN,pracTrials.thisTrialN,pracTrials.thisN,pracTrials.thisIndex,pracTrials.ran,objLabel,imFile,distractLabel,corr,participant,date,expName,psychopyVersion,OS,frameRate,Corr,objDistract,py_duration,trials.thisRepN,trials.thisTrialN,trials.thisN,trials.thisIndex,trials.ran,objNum,animType,condition
0.3,right,0,12.8509,0,0,0,0,1,shoe,Stim/Prac (1).jpg,phone,left,6063,2021-09-13_16h34.34.498,KorNet_kid_complete,2020.2.4,Win32,60,,,,,,,,,,,
0.3,right,1,5.2342,0,1,1,1,1,castle,Stim/Prac (2).png,car,right,6063,2021-09-13_16h34.34.498,KorNet_kid_complete,2020.2.4,Win32,60,,,,,,,,,,,
0.3,left,1,6.2473,0,2,2,3,1,motorcycle,Stim/Prac (4).jpg,skateboard,left,6063,2021-09-13_16h34.34.498,KorNet_kid_complete,2020.2.4,Win32,60,,,,,,,,,,,
0.25,right,1,9.1737,0,3,3,2,1,balloon,Stim/Prac (3).jpg,computer,right,6063,2021-09-13_16h34.34.498,KorNet_kid_complete,2020.2.4,Win32,60,,,,,,,,,,,
0.3,right,1,5.2559,,,,,,truck,Stim/Complete/OBJ (45).png,,,6063,2021-09-13_16h34.34.498,KorNet_kid_complete,2020.2.4,Win32,60,right,scissors,0.2916,0,0,0,27,1,45,Inanimate,1
0.3,left,1,5.877,,,,,,tree,Stim/Complete/OBJ (44).png,,,6063,2021-09-13_16h34.34.498,KorNet_kid_complete,2020.2.4,Win32,60,left,scissors,0.2915,0,1,1,26,1,44,Inanimate,1
0.25,left,1,6.3723,,,,,,lamp,Stim/Complete/OBJ (31).png,,,6063,2021-09-13_16h34.34.498,KorNet_kid_complete,2020.2.4,Win32,60,left,guitar,0.2916,0,2,2,21,1,31,Inanimate,1
0.25,right,1,4.5458,,,,,,leaf,Stim/Complete/OBJ (32).png,,,6063,2021-09-13_16h34.34.498,KorNet_kid_complete,2020.2.4,Win32,60,right,fork,0.2431,0,3,3,22,1,32,Inanimate,1
0.25,right,0,8.4822,,,,,,foot,Stim/Complete/OBJ (21).png,,,6063,2021-09-13_16h34.34.498,KorNet_kid_complete,2020.2.4,Win32,60,left,turtle,0.2432,0,4,4,14,1,21,Animate,1
0.25,left,1,4.8548,,,,,,fish,Stim/Complete/OBJ (19).png,,,6063,2021-09-13_16h34.34.498,KorNet_kid_complete,2020.2.4,Win32,60,left,mouse,0.2426,0,5,5,12,1,19,Animate,1
0.25,left,0,5.6255,,,,,,key,Stim/Complete/OBJ (29).png,,,6063,2021-09-13_16h34.34.498,KorNet_kid_complete,2020.2.4,Win32,60,right,leaf,0.2431,0,6,6,19,1,29,Inanimate,1
0.25,right,1,4.109,,,,,,bird,Stim/Complete/OBJ (8).png,,,6063,2021-09-13_16h34.34.498,KorNet_kid_complete,2020.2.4,Win32,60,right,mouse,0.2431,0,7,7,4,1,8,Animate,1
0.25,left,1,8.7381,,,,,,elephant,Stim/Complete/OBJ (18).png,,,6063,2021-09-13_16h34.34.498,KorNet_kid_complete,2020.2.4,Win32,60,left,mouse,0.2431,0,8,8,11,1,18,Animate,1
0.2,left,1,5.9876,,,,,,cow,Stim/Complete/OBJ (14).png,,,6063,2021-09-13_16h34.34.498,KorNet_kid_complete,2020.2.4,Win32,60,left,dog,0.243,0,9,9,8,1,14,Animate,1
0.2,left,1,4.9149,,,,,,duck,Stim/Complete/OBJ (17).png,,,6063,2021-09-13_16h34.34.498,KorNet_kid_complete,2020.2.4,Win32,60,left,butterfly,0.1876,0,10,10,10,1,17,Animate,1
0.2,right,1,4.6073,,,,,,butterfly,Stim/Complete/OBJ (10).png,,,6063,2021-09-13_16h34.34.498,KorNet_kid_complete,2020.2.4,Win32,60,right,cow,0.1876,0,11,11,5,1,10,Animate,1
0.15,left,1,5.1728,,,,,,turtle,Stim/Complete/OBJ (46).png,,,6063,2021-09-13_16h34.34.498,KorNet_kid_complete,2020.2.4,Win32,60,left,penguin,0.1876,0,12,12,28,1,46,Animate,1
0.15,left,1,4.9726,,,,,,bear,Stim/Complete/OBJ (6).png,,,6063,2021-09-13_16h34.34.498,KorNet_kid_complete,2020.2.4,Win32,60,left,frog,0.1389,0,13,13,2,1,6,Animate,1
0.15,right,1,4.2845,,,,,,fork,Stim/Complete/OBJ (22).png,,,6063,2021-09-13_16h34.34.498,KorNet_kid_complete,2020.2.4,Win32,60,right,lamp,0.1389,0,14,14,15,1,22,Inanimate,1
0.1,left,1,5.353,,,,,,apple,Stim/Complete/OBJ (4).png,,,6063,2021-09-13_16h34.34.498,KorNet_kid_complete,2020.2.4,Win32,60,left,bicycle,0.1389,0,15,15,1,1,4,Inanimate,1
0.1,right,1,5.0176,,,,,,airplane,Stim/Complete/OBJ (1).png,,,6063,2021-09-13_16h34.34.498,KorNet_kid_complete,2020.2.4,Win32,60,right,truck,0.0902,0,16,16,0,1,1,Inanimate,1
0.1,right,1,5.5275,,,,,,dog,Stim/Complete/OBJ (16).png,,,6063,2021-09-13_16h34.34.498,KorNet_kid_complete,2020.2.4,Win32,60,right,duck,0.0899,0,17,17,9,1,16,Animate,1
0.1,right,1,5.131,,,,,,guitar,Stim/Complete/OBJ (27).png,,,6063,2021-09-13_16h34.34.498,KorNet_kid_complete,2020.2.4,Win32,60,right,bicycle,0.0904,0,18,18,18,1,27,Inanimate,1
0.1,right,1,6.8861,,,,,,kite,Stim/Complete/OBJ (30).png,,,6063,2021-09-13_16h34.34.498,KorNet_kid_complete,2020.2.4,Win32,60,right,bicycle,0.0902,0,19,19,20,1,30,Inanimate,1
0.1,left,1,6.5184,,,,,,frog,Stim/Complete/OBJ (23).png,,,6063,2021-09-13_16h34.34.498,KorNet_kid_complete,2020.2.4,Win32,60,left,ant,0.0903,0,20,20,16,1,23,Animate,1
0.1,left,1,5.0928,,,,,,umbrella,Stim/Complete/OBJ (47).png,,,6063,2021-09-13_16h34.34.498,KorNet_kid_complete,2020.2.4,Win32,60,left,key,0.0903,0,21,21,29,1,47,Inanimate,1
0.1,left,0,6.6328,,,,,,cat,Stim/Complete/OBJ (11).png,,,6063,2021-09-13_16h34.34.498,KorNet_kid_complete,2020.2.4,Win32,60,right,kangaroo,0.0905,0,22,22,6,1,11,Animate,1
0.1,left,1,7.5162,,,,,,spoon,Stim/Complete/OBJ (41).png,,,6063,2021-09-13_16h34.34.498,KorNet_kid_complete,2020.2.4,Win32,60,left,lamp,0.0901,0,23,23,24,1,41,Inanimate,1
0.1,right,0,5.2691,,,,,,hand,Stim/Complete/OBJ (25).png,,,6063,2021-09-13_16h34.34.498,KorNet_kid_complete,2020.2.4,Win32,60,left,cow,0.0901,0,24,24,17,1,25,Animate,1
0.1,right,1,5.8256,,,,,,chair,Stim/Complete/OBJ (12).png,,,6063,2021-09-13_16h34.34.498,KorNet_kid_complete,2020.2.4,Win32,60,right,glasses,0.0902,0,25,25,7,1,12,Inanimate,1
0.1,left,1,5.5812,,,,,,flower,Stim/Complete/OBJ (20).png,,,6063,2021-09-13_16h34.34.498,KorNet_kid_complete,2020.2.4,Win32,60,left,key,0.0898,0,26,26,13,1,20,Inanimate,1
0.1,right,1,5.6954,,,,,,squirrel,Stim/Complete/OBJ (42).png,,,6063,2021-09-13_16h34.34.498,KorNet_kid_complete,2020.2.4,Win32,60,right,duck,0.0903,0,27,27,25,1,42,Animate,1
0.1,left,1,5.3242,,,,,,bicycle,Stim/Complete/OBJ (7).png,,,6063,2021-09-13_16h34.34.498,KorNet_kid_complete,2020.2.4,Win32,60,left,umbrella,0.0903,0,28,28,3,1,7,Inanimate,1
0.1,left,0,5.4531,,,,,,rabbit,Stim/Complete/OBJ (38).png,,,6063,2021-09-13_16h34.34.498,KorNet_kid_complete,2020.2.4,Win32,60,right,mouse,0.0902,0,29,29,23,1,38,Animate,1
