Duration,resp.keys,resp.corr,resp.rt,pracTrials.thisRepN,pracTrials.thisTrialN,pracTrials.thisN,pracTrials.thisIndex,pracTrials.ran,objLabel,imFile,distractLabel,corr,participant,date,expName,psychopyVersion,OS,frameRate,Corr,objDistract,py_duration,trials.thisRepN,trials.thisTrialN,trials.thisN,trials.thisIndex,trials.ran,objNum,animType,condition
0.3,left,1,6.8576,0,0,0,3,1,motorcycle,Stim/Prac (4).jpg,skateboard,left,6108,2022-03-15_15h06.55.319,KorNet_kid_complete,2020.2.4,Win32,60,,,,,,,,,,,
0.3,right,1,6.1345,0,1,1,2,1,balloon,Stim/Prac (3).jpg,computer,right,6108,2022-03-15_15h06.55.319,KorNet_kid_complete,2020.2.4,Win32,60,,,,,,,,,,,
0.25,right,1,5.171,0,2,2,1,1,castle,Stim/Prac (2).png,car,right,6108,2022-03-15_15h06.55.319,KorNet_kid_complete,2020.2.4,Win32,60,,,,,,,,,,,
0.25,left,1,5.9643,0,3,3,0,1,shoe,Stim/Prac (1).jpg,phone,left,6108,2022-03-15_15h06.55.319,KorNet_kid_complete,2020.2.4,Win32,60,,,,,,,,,,,
0.3,left,0,6.9514,,,,,,rabbit,Stim/Complete/OBJ (38).png,,,6108,2022-03-15_15h06.55.319,KorNet_kid_complete,2020.2.4,Win32,60,right,butterfly,0.2994,0,0,0,23,1,38,Animate,1
0.3,left,0,5.128,,,,,,guitar,Stim/Complete/OBJ (27).png,,,6108,2022-03-15_15h06.55.319,KorNet_kid_complete,2020.2.4,Win32,60,right,leaf,0.3036,0,1,1,18,1,27,Inanimate,1
0.35,right,0,6.2187,,,,,,truck,Stim/Complete/OBJ (45).png,,,6108,2022-03-15_15h06.55.319,KorNet_kid_complete,2020.2.4,Win32,60,left,spoon,0.2998,0,2,2,27,1,45,Inanimate,1
0.35,right,1,6.4598,,,,,,turtle,Stim/Complete/OBJ (46).png,,,6108,2022-03-15_15h06.55.319,KorNet_kid_complete,2020.2.4,Win32,60,right,cow,0.35,0,3,3,28,1,46,Animate,1
0.35,right,1,5.2224,,,,,,bird,Stim/Complete/OBJ (8).png,,,6108,2022-03-15_15h06.55.319,KorNet_kid_complete,2020.2.4,Win32,60,right,fish,0.3538,0,4,4,4,1,8,Animate,1
0.3,left,1,5.3858,,,,,,apple,Stim/Complete/OBJ (4).png,,,6108,2022-03-15_15h06.55.319,KorNet_kid_complete,2020.2.4,Win32,60,left,flower,0.3447,0,5,5,1,1,4,Inanimate,1
0.3,right,1,4.7503,,,,,,key,Stim/Complete/OBJ (29).png,,,6108,2022-03-15_15h06.55.319,KorNet_kid_complete,2020.2.4,Win32,60,right,apple,0.2993,0,6,6,19,1,29,Inanimate,1
0.3,right,0,6.4031,,,,,,elephant,Stim/Complete/OBJ (18).png,,,6108,2022-03-15_15h06.55.319,KorNet_kid_complete,2020.2.4,Win32,60,left,butterfly,0.2928,0,7,7,11,1,18,Animate,1
0.3,left,1,5.1355,,,,,,airplane,Stim/Complete/OBJ (1).png,,,6108,2022-03-15_15h06.55.319,KorNet_kid_complete,2020.2.4,Win32,60,left,apple,0.295,0,8,8,0,1,1,Inanimate,1
0.3,right,1,4.199,,,,,,butterfly,Stim/Complete/OBJ (10).png,,,6108,2022-03-15_15h06.55.319,KorNet_kid_complete,2020.2.4,Win32,60,right,fish,0.3009,0,9,9,5,1,10,Animate,1
0.3,left,0,6.6056,,,,,,dog,Stim/Complete/OBJ (16).png,,,6108,2022-03-15_15h06.55.319,KorNet_kid_complete,2020.2.4,Win32,60,right,bear,0.3005,0,10,10,9,1,16,Animate,1
0.3,right,0,6.3345,,,,,,cow,Stim/Complete/OBJ (14).png,,,6108,2022-03-15_15h06.55.319,KorNet_kid_complete,2020.2.4,Win32,60,left,penguin,0.3024,0,11,11,8,1,14,Animate,1
0.3,left,1,4.6906,,,,,,bear,Stim/Complete/OBJ (6).png,,,6108,2022-03-15_15h06.55.319,KorNet_kid_complete,2020.2.4,Win32,60,left,turtle,0.2998,0,12,12,2,1,6,Animate,1
0.3,left,1,5.2173,,,,,,fork,Stim/Complete/OBJ (22).png,,,6108,2022-03-15_15h06.55.319,KorNet_kid_complete,2020.2.4,Win32,60,left,chair,0.2942,0,13,13,15,1,22,Inanimate,1
0.25,right,1,4.5987,,,,,,hand,Stim/Complete/OBJ (25).png,,,6108,2022-03-15_15h06.55.319,KorNet_kid_complete,2020.2.4,Win32,60,right,deer,0.3041,0,14,14,17,1,25,Animate,1
0.25,right,0,2.8179,,,,,,umbrella,Stim/Complete/OBJ (47).png,,,6108,2022-03-15_15h06.55.319,KorNet_kid_complete,2020.2.4,Win32,60,left,scissors,0.2534,0,15,15,29,1,47,Inanimate,1
0.25,left,1,7.3861,,,,,,bicycle,Stim/Complete/OBJ (7).png,,,6108,2022-03-15_15h06.55.319,KorNet_kid_complete,2020.2.4,Win32,60,left,kite,0.2484,0,16,16,3,1,7,Inanimate,1
0.25,left,1,6.7485,,,,,,flower,Stim/Complete/OBJ (20).png,,,6108,2022-03-15_15h06.55.319,KorNet_kid_complete,2020.2.4,Win32,60,left,lamp,0.2474,0,17,17,13,1,20,Inanimate,1
0.25,right,0,5.8328,,,,,,cat,Stim/Complete/OBJ (11).png,,,6108,2022-03-15_15h06.55.319,KorNet_kid_complete,2020.2.4,Win32,60,left,turtle,0.25,0,18,18,6,1,11,Animate,1
0.25,left,0,8.9943,,,,,,foot,Stim/Complete/OBJ (21).png,,,6108,2022-03-15_15h06.55.319,KorNet_kid_complete,2020.2.4,Win32,60,right,butterfly,0.251,0,19,19,14,1,21,Animate,1
0.25,left,1,6.8697,,,,,,frog,Stim/Complete/OBJ (23).png,,,6108,2022-03-15_15h06.55.319,KorNet_kid_complete,2020.2.4,Win32,60,left,butterfly,0.2496,0,20,20,16,1,23,Animate,1
0.25,left,1,6.0224,,,,,,fish,Stim/Complete/OBJ (19).png,,,6108,2022-03-15_15h06.55.319,KorNet_kid_complete,2020.2.4,Win32,60,left,mouse,0.2506,0,21,21,12,1,19,Animate,1
0.2,left,1,5.8725,,,,,,tree,Stim/Complete/OBJ (44).png,,,6108,2022-03-15_15h06.55.319,KorNet_kid_complete,2020.2.4,Win32,60,left,key,0.2496,0,22,22,26,1,44,Inanimate,1
0.2,left,0,6.9826,,,,,,kite,Stim/Complete/OBJ (30).png,,,6108,2022-03-15_15h06.55.319,KorNet_kid_complete,2020.2.4,Win32,60,right,glasses,0.2006,0,23,23,20,1,30,Inanimate,1
0.2,right,1,5.8855,,,,,,lamp,Stim/Complete/OBJ (31).png,,,6108,2022-03-15_15h06.55.319,KorNet_kid_complete,2020.2.4,Win32,60,right,apple,0.2001,0,24,24,21,1,31,Inanimate,1
0.2,left,1,6.1127,,,,,,spoon,Stim/Complete/OBJ (41).png,,,6108,2022-03-15_15h06.55.319,KorNet_kid_complete,2020.2.4,Win32,60,left,fork,0.2006,0,25,25,24,1,41,Inanimate,1
0.2,right,0,6.4369,,,,,,squirrel,Stim/Complete/OBJ (42).png,,,6108,2022-03-15_15h06.55.319,KorNet_kid_complete,2020.2.4,Win32,60,left,fish,0.1999,0,26,26,25,1,42,Animate,1
0.2,right,1,5.5031,,,,,,duck,Stim/Complete/OBJ (17).png,,,6108,2022-03-15_15h06.55.319,KorNet_kid_complete,2020.2.4,Win32,60,right,ant,0.1994,0,27,27,10,1,17,Animate,1
0.2,right,0,5.7045,,,,,,leaf,Stim/Complete/OBJ (32).png,,,6108,2022-03-15_15h06.55.319,KorNet_kid_complete,2020.2.4,Win32,60,left,airplane,0.1879,0,28,28,22,1,32,Inanimate,1
0.2,left,1,5.4057,,,,,,chair,Stim/Complete/OBJ (12).png,,,6108,2022-03-15_15h06.55.319,KorNet_kid_complete,2020.2.4,Win32,60,left,apple,0.2009,0,29,29,7,1,12,Inanimate,1
