Duration,resp.keys,resp.corr,resp.rt,pracTrials.thisRepN,pracTrials.thisTrialN,pracTrials.thisN,pracTrials.thisIndex,pracTrials.ran,objLabel,imFile,distractLabel,corr,participant,date,expName,psychopyVersion,OS,frameRate,Corr,objDistract,py_duration,trials.thisRepN,trials.thisTrialN,trials.thisN,trials.thisIndex,trials.ran,objNum,animType,condition
0.3,left,1,8.112,0,0,0,3,1,motorcycle,Stim/Prac (4).jpg,skateboard,left,6132,2022-08-22_16h17.02.245,KorNet_kid_complete,2020.2.4,MacIntel,60,,,,,,,,,,,
0.3,right,1,5.848,0,1,1,1,1,castle,Stim/Prac (2).png,car,right,6132,2022-08-22_16h17.02.245,KorNet_kid_complete,2020.2.4,MacIntel,60,,,,,,,,,,,
0.25,left,1,6.377,0,2,2,0,1,shoe,Stim/Prac (1).jpg,phone,left,6132,2022-08-22_16h17.02.245,KorNet_kid_complete,2020.2.4,MacIntel,60,,,,,,,,,,,
0.25,right,1,5.845,0,3,3,2,1,balloon,Stim/Prac (3).jpg,computer,right,6132,2022-08-22_16h17.02.245,KorNet_kid_complete,2020.2.4,MacIntel,60,,,,,,,,,,,
0.3,left,1,7.679,,,,,,squirrel,Stim/Complete/OBJ (42).png,,,6132,2022-08-22_16h17.02.245,KorNet_kid_complete,2020.2.4,MacIntel,60,left,foot,0.3,0,0,0,25,1,42,Animate,1
0.3,right,1,5.881,,,,,,apple,Stim/Complete/OBJ (4).png,,,6132,2022-08-22_16h17.02.245,KorNet_kid_complete,2020.2.4,MacIntel,60,right,lamp,0.3,0,1,1,1,1,4,Inanimate,1
0.25,right,1,5.63,,,,,,turtle,Stim/Complete/OBJ (46).png,,,6132,2022-08-22_16h17.02.245,KorNet_kid_complete,2020.2.4,MacIntel,60,right,rabbit,0.299,0,2,2,28,1,46,Animate,1
0.25,right,1,5.45,,,,,,umbrella,Stim/Complete/OBJ (47).png,,,6132,2022-08-22_16h17.02.245,KorNet_kid_complete,2020.2.4,MacIntel,60,right,chair,0.249,0,3,3,29,1,47,Inanimate,1
0.25,right,1,11.678,,,,,,duck,Stim/Complete/OBJ (17).png,,,6132,2022-08-22_16h17.02.245,KorNet_kid_complete,2020.2.4,MacIntel,60,right,penguin,0.249,0,4,4,10,1,17,Animate,1
0.25,left,0,7.431,,,,,,bicycle,Stim/Complete/OBJ (7).png,,,6132,2022-08-22_16h17.02.245,KorNet_kid_complete,2020.2.4,MacIntel,60,right,airplane,0.25,0,5,5,3,1,7,Inanimate,1
0.25,left,1,5.573,,,,,,lamp,Stim/Complete/OBJ (31).png,,,6132,2022-08-22_16h17.02.245,KorNet_kid_complete,2020.2.4,MacIntel,60,left,airplane,0.249,0,6,6,21,1,31,Inanimate,1
0.25,left,0,8.58,,,,,,kite,Stim/Complete/OBJ (30).png,,,6132,2022-08-22_16h17.02.245,KorNet_kid_complete,2020.2.4,MacIntel,60,right,bicycle,0.25,0,7,7,20,1,30,Inanimate,1
0.25,right,1,6.143,,,,,,tree,Stim/Complete/OBJ (44).png,,,6132,2022-08-22_16h17.02.245,KorNet_kid_complete,2020.2.4,MacIntel,60,right,scissors,0.249,0,8,8,26,1,44,Inanimate,1
0.25,left,1,5.729,,,,,,foot,Stim/Complete/OBJ (21).png,,,6132,2022-08-22_16h17.02.245,KorNet_kid_complete,2020.2.4,MacIntel,60,left,kangaroo,0.249,0,9,9,14,1,21,Animate,1
0.2,left,1,7.785,,,,,,spoon,Stim/Complete/OBJ (41).png,,,6132,2022-08-22_16h17.02.245,KorNet_kid_complete,2020.2.4,MacIntel,60,left,tree,0.25,0,10,10,24,1,41,Inanimate,1
0.2,left,1,6.076,,,,,,elephant,Stim/Complete/OBJ (18).png,,,6132,2022-08-22_16h17.02.245,KorNet_kid_complete,2020.2.4,MacIntel,60,left,frog,0.2,0,11,11,11,1,18,Animate,1
0.2,left,1,5.037,,,,,,frog,Stim/Complete/OBJ (23).png,,,6132,2022-08-22_16h17.02.245,KorNet_kid_complete,2020.2.4,MacIntel,60,left,dog,0.2,0,12,12,16,1,23,Animate,1
0.15,right,1,6.882,,,,,,chair,Stim/Complete/OBJ (12).png,,,6132,2022-08-22_16h17.02.245,KorNet_kid_complete,2020.2.4,MacIntel,60,right,truck,0.198,0,13,13,7,1,12,Inanimate,1
0.15,right,0,8.933,,,,,,dog,Stim/Complete/OBJ (16).png,,,6132,2022-08-22_16h17.02.245,KorNet_kid_complete,2020.2.4,MacIntel,60,left,frog,0.15,0,14,14,9,1,16,Animate,1
0.15,left,1,5.29,,,,,,bird,Stim/Complete/OBJ (8).png,,,6132,2022-08-22_16h17.02.245,KorNet_kid_complete,2020.2.4,MacIntel,60,left,frog,0.15,0,15,15,4,1,8,Animate,1
0.15,left,1,4.629,,,,,,cow,Stim/Complete/OBJ (14).png,,,6132,2022-08-22_16h17.02.245,KorNet_kid_complete,2020.2.4,MacIntel,60,left,duck,0.149,0,16,16,8,1,14,Animate,1
0.1,right,1,4.989,,,,,,fish,Stim/Complete/OBJ (19).png,,,6132,2022-08-22_16h17.02.245,KorNet_kid_complete,2020.2.4,MacIntel,60,right,penguin,0.149,0,17,17,12,1,19,Animate,1
0.1,left,1,7.225,,,,,,rabbit,Stim/Complete/OBJ (38).png,,,6132,2022-08-22_16h17.02.245,KorNet_kid_complete,2020.2.4,MacIntel,60,left,butterfly,0.1,0,18,18,23,1,38,Animate,1
0.1,right,0,5.275,,,,,,fork,Stim/Complete/OBJ (22).png,,,6132,2022-08-22_16h17.02.245,KorNet_kid_complete,2020.2.4,MacIntel,60,left,airplane,0.1,0,19,19,15,1,22,Inanimate,1
0.1,left,1,5.793,,,,,,key,Stim/Complete/OBJ (29).png,,,6132,2022-08-22_16h17.02.245,KorNet_kid_complete,2020.2.4,MacIntel,60,left,tree,0.1,0,20,20,19,1,29,Inanimate,1
0.1,left,1,4.929,,,,,,flower,Stim/Complete/OBJ (20).png,,,6132,2022-08-22_16h17.02.245,KorNet_kid_complete,2020.2.4,MacIntel,60,left,bicycle,0.101,0,21,21,13,1,20,Inanimate,1
0.1,right,1,5.73,,,,,,guitar,Stim/Complete/OBJ (27).png,,,6132,2022-08-22_16h17.02.245,KorNet_kid_complete,2020.2.4,MacIntel,60,right,glasses,0.1,0,22,22,18,1,27,Inanimate,1
0.1,left,1,5.229,,,,,,bear,Stim/Complete/OBJ (6).png,,,6132,2022-08-22_16h17.02.245,KorNet_kid_complete,2020.2.4,MacIntel,60,left,cow,0.099,0,23,23,2,1,6,Animate,1
0.1,left,1,16.226,,,,,,leaf,Stim/Complete/OBJ (32).png,,,6132,2022-08-22_16h17.02.245,KorNet_kid_complete,2020.2.4,MacIntel,60,left,spoon,0.099,0,24,24,22,1,32,Inanimate,1
0.1,left,1,6.378,,,,,,truck,Stim/Complete/OBJ (45).png,,,6132,2022-08-22_16h17.02.245,KorNet_kid_complete,2020.2.4,MacIntel,60,left,spoon,0.1,0,25,25,27,1,45,Inanimate,1
0.1,left,1,15.878,,,,,,butterfly,Stim/Complete/OBJ (10).png,,,6132,2022-08-22_16h17.02.245,KorNet_kid_complete,2020.2.4,MacIntel,60,left,kangaroo,0.1,0,26,26,5,1,10,Animate,1
0.1,left,0,5.336,,,,,,cat,Stim/Complete/OBJ (11).png,,,6132,2022-08-22_16h17.02.245,KorNet_kid_complete,2020.2.4,MacIntel,60,right,mouse,0.099,0,27,27,6,1,11,Animate,1
0.1,left,0,5.385,,,,,,hand,Stim/Complete/OBJ (25).png,,,6132,2022-08-22_16h17.02.245,KorNet_kid_complete,2020.2.4,MacIntel,60,right,turtle,0.1,0,28,28,17,1,25,Animate,1
0.1,right,1,5.534,,,,,,airplane,Stim/Complete/OBJ (1).png,,,6132,2022-08-22_16h17.02.245,KorNet_kid_complete,2020.2.4,MacIntel,60,right,tree,0.1,0,29,29,0,1,1,Inanimate,1
