Duration,resp.keys,resp.corr,resp.rt,pracTrials.thisRepN,pracTrials.thisTrialN,pracTrials.thisN,pracTrials.thisIndex,pracTrials.ran,objLabel,imFile,distractLabel,corr,participant,date,expName,psychopyVersion,OS,frameRate,Corr,objDistract,py_duration,trials.thisRepN,trials.thisTrialN,trials.thisN,trials.thisIndex,trials.ran,objNum,animType,condition
0.3,right,1,0.5041,0,0,0,1,1,castle,Stim/Prac (2).png,car,right,stellavideo,2022-08-31_15h49.57.828,KorNet_kid_complete,2020.2.4,MacIntel,60,,,,,,,,,,,
0.3,left,1,0.4037,0,1,1,0,1,shoe,Stim/Prac (1).jpg,phone,left,stellavideo,2022-08-31_15h49.57.828,KorNet_kid_complete,2020.2.4,MacIntel,60,,,,,,,,,,,
0.25,left,1,1.1969,0,2,2,3,1,motorcycle,Stim/Prac (4).jpg,skateboard,left,stellavideo,2022-08-31_15h49.57.828,KorNet_kid_complete,2020.2.4,MacIntel,60,,,,,,,,,,,
0.25,right,1,0.5484,0,3,3,2,1,balloon,Stim/Prac (3).jpg,computer,right,stellavideo,2022-08-31_15h49.57.828,KorNet_kid_complete,2020.2.4,MacIntel,60,,,,,,,,,,,
0.3,right,1,1.7119,,,,,,foot,Stim/Complete/OBJ (21).png,,,stellavideo,2022-08-31_15h49.57.828,KorNet_kid_complete,2020.2.4,MacIntel,60,right,rabbit,0.3001,0,0,0,14,1,21,Animate,1
0.3,right,1,2.0706,,,,,,duck,Stim/Complete/OBJ (17).png,,,stellavideo,2022-08-31_15h49.57.828,KorNet_kid_complete,2020.2.4,MacIntel,60,right,cat,0.301,0,1,1,10,1,17,Animate,1
0.25,right,1,0.932,,,,,,squirrel,Stim/Complete/OBJ (42).png,,,stellavideo,2022-08-31_15h49.57.828,KorNet_kid_complete,2020.2.4,MacIntel,60,right,fish,0.3003,0,2,2,25,1,42,Animate,1
0.25,right,1,0.4747,,,,,,turtle,Stim/Complete/OBJ (46).png,,,stellavideo,2022-08-31_15h49.57.828,KorNet_kid_complete,2020.2.4,MacIntel,60,right,cow,0.2505,0,3,3,28,1,46,Animate,1
0.25,left,1,0.3768,,,,,,frog,Stim/Complete/OBJ (23).png,,,stellavideo,2022-08-31_15h49.57.828,KorNet_kid_complete,2020.2.4,MacIntel,60,left,deer,0.2506,0,4,4,16,1,23,Animate,1
0.2,right,1,0.5187,,,,,,leaf,Stim/Complete/OBJ (32).png,,,stellavideo,2022-08-31_15h49.57.828,KorNet_kid_complete,2020.2.4,MacIntel,60,right,airplane,0.25,0,5,5,22,1,32,Inanimate,1
0.2,right,1,0.4306,,,,,,cow,Stim/Complete/OBJ (14).png,,,stellavideo,2022-08-31_15h49.57.828,KorNet_kid_complete,2020.2.4,MacIntel,60,right,butterfly,0.2002,0,6,6,8,1,14,Animate,1
0.2,left,1,0.5136,,,,,,truck,Stim/Complete/OBJ (45).png,,,stellavideo,2022-08-31_15h49.57.828,KorNet_kid_complete,2020.2.4,MacIntel,60,left,guitar,0.1994,0,7,7,27,1,45,Inanimate,1
0.15,right,1,0.598,,,,,,rabbit,Stim/Complete/OBJ (38).png,,,stellavideo,2022-08-31_15h49.57.828,KorNet_kid_complete,2020.2.4,MacIntel,60,right,ant,0.1997,0,8,8,23,1,38,Animate,1
0.15,left,1,0.3654,,,,,,bird,Stim/Complete/OBJ (8).png,,,stellavideo,2022-08-31_15h49.57.828,KorNet_kid_complete,2020.2.4,MacIntel,60,left,foot,0.1507,0,9,9,4,1,8,Animate,1
0.15,left,1,0.4832,,,,,,guitar,Stim/Complete/OBJ (27).png,,,stellavideo,2022-08-31_15h49.57.828,KorNet_kid_complete,2020.2.4,MacIntel,60,left,leaf,0.1501,0,10,10,18,1,27,Inanimate,1
0.1,right,1,0.4409,,,,,,chair,Stim/Complete/OBJ (12).png,,,stellavideo,2022-08-31_15h49.57.828,KorNet_kid_complete,2020.2.4,MacIntel,60,right,guitar,0.1508,0,11,11,7,1,12,Inanimate,1
0.1,left,1,0.4372,,,,,,bear,Stim/Complete/OBJ (6).png,,,stellavideo,2022-08-31_15h49.57.828,KorNet_kid_complete,2020.2.4,MacIntel,60,left,squirrel,0.1006,0,12,12,2,1,6,Animate,1
0.1,right,1,0.4902,,,,,,lamp,Stim/Complete/OBJ (31).png,,,stellavideo,2022-08-31_15h49.57.828,KorNet_kid_complete,2020.2.4,MacIntel,60,right,key,0.0994,0,13,13,21,1,31,Inanimate,1
0.1,left,1,0.5714,,,,,,flower,Stim/Complete/OBJ (20).png,,,stellavideo,2022-08-31_15h49.57.828,KorNet_kid_complete,2020.2.4,MacIntel,60,left,fork,0.0989,0,14,14,13,1,20,Inanimate,1
0.1,left,1,0.4723,,,,,,umbrella,Stim/Complete/OBJ (47).png,,,stellavideo,2022-08-31_15h49.57.828,KorNet_kid_complete,2020.2.4,MacIntel,60,left,spoon,0.0999,0,15,15,29,1,47,Inanimate,1
0.1,right,1,0.4975,,,,,,fish,Stim/Complete/OBJ (19).png,,,stellavideo,2022-08-31_15h49.57.828,KorNet_kid_complete,2020.2.4,MacIntel,60,right,duck,0.1,0,16,16,12,1,19,Animate,1
0.1,right,0,0.5316,,,,,,tree,Stim/Complete/OBJ (44).png,,,stellavideo,2022-08-31_15h49.57.828,KorNet_kid_complete,2020.2.4,MacIntel,60,left,truck,0.0994,0,17,17,26,1,44,Inanimate,1
0.1,right,1,0.5754,,,,,,apple,Stim/Complete/OBJ (4).png,,,stellavideo,2022-08-31_15h49.57.828,KorNet_kid_complete,2020.2.4,MacIntel,60,right,kite,0.0996,0,18,18,1,1,4,Inanimate,1
0.1,right,1,0.5728,,,,,,fork,Stim/Complete/OBJ (22).png,,,stellavideo,2022-08-31_15h49.57.828,KorNet_kid_complete,2020.2.4,MacIntel,60,right,guitar,0.1004,0,19,19,15,1,22,Inanimate,1
0.1,right,1,0.8301,,,,,,elephant,Stim/Complete/OBJ (18).png,,,stellavideo,2022-08-31_15h49.57.828,KorNet_kid_complete,2020.2.4,MacIntel,60,right,penguin,0.0992,0,20,20,11,1,18,Animate,1
0.1,right,1,0.9654,,,,,,bicycle,Stim/Complete/OBJ (7).png,,,stellavideo,2022-08-31_15h49.57.828,KorNet_kid_complete,2020.2.4,MacIntel,60,right,spoon,0.0999,0,21,21,3,1,7,Inanimate,1
0.1,right,1,0.512,,,,,,cat,Stim/Complete/OBJ (11).png,,,stellavideo,2022-08-31_15h49.57.828,KorNet_kid_complete,2020.2.4,MacIntel,60,right,mouse,0.1007,0,22,22,6,1,11,Animate,1
0.1,right,1,0.5996,,,,,,spoon,Stim/Complete/OBJ (41).png,,,stellavideo,2022-08-31_15h49.57.828,KorNet_kid_complete,2020.2.4,MacIntel,60,right,toothbrush,0.1011,0,23,23,24,1,41,Inanimate,1
0.1,right,1,0.7808,,,,,,key,Stim/Complete/OBJ (29).png,,,stellavideo,2022-08-31_15h49.57.828,KorNet_kid_complete,2020.2.4,MacIntel,60,right,airplane,0.1011,0,24,24,19,1,29,Inanimate,1
0.1,right,1,0.5962,,,,,,dog,Stim/Complete/OBJ (16).png,,,stellavideo,2022-08-31_15h49.57.828,KorNet_kid_complete,2020.2.4,MacIntel,60,right,squirrel,0.1008,0,25,25,9,1,16,Animate,1
0.1,right,1,0.656,,,,,,hand,Stim/Complete/OBJ (25).png,,,stellavideo,2022-08-31_15h49.57.828,KorNet_kid_complete,2020.2.4,MacIntel,60,right,rabbit,0.0999,0,26,26,17,1,25,Animate,1
0.1,right,1,1.599,,,,,,airplane,Stim/Complete/OBJ (1).png,,,stellavideo,2022-08-31_15h49.57.828,KorNet_kid_complete,2020.2.4,MacIntel,60,right,toothbrush,0.1006,0,27,27,0,1,1,Inanimate,1
0.1,left,1,2.6816,,,,,,butterfly,Stim/Complete/OBJ (10).png,,,stellavideo,2022-08-31_15h49.57.828,KorNet_kid_complete,2020.2.4,MacIntel,60,left,elephant,0.1003,0,28,28,5,1,10,Animate,1
0.1,left,1,1.3703,,,,,,kite,Stim/Complete/OBJ (30).png,,,stellavideo,2022-08-31_15h49.57.828,KorNet_kid_complete,2020.2.4,MacIntel,60,left,bicycle,0.0995,0,29,29,20,1,30,Inanimate,1
